job_id,position,study_id,status,participant,iteration,acc,bidi,start,title,width,Module,avg_rt,height,SoundID,correct,logfile,accuracy,cursor_x,cursor_y,datetime,response,font_bold,font_size,timestamp,background,cursor_roi,foreground,fullscreen,omm_job_id,sound_freq,subject_nr,time_sound,coordinates,count_sound,current_job,description,font_family,font_italic,form_clicks,log_backend,time_logger,compensation,count_logger,time_delay_1,clock_backend,color_backend,count_delay_1,mouse_backend,omm_job_count,omm_job_index,response_time,time_new_loop,total_correct,canvas_backend,count_new_loop,font_underline,round_decimals,sound_buf_size,sound_channels,subject_parity,time_delay_1_1,time_test_loop,count_delay_1_1,count_test_loop,experiment_path,sampler_backend,time_experiment,time_playsounds,total_responses,count_experiment,count_playsounds,keyboard_backend,time_request_job,count_request_job,sound_sample_size,time_start_button,count_start_button,opensesame_version,opensesame_codename,time_empty_sequence,time_rewardfortouch,time_trial_sequence,total_response_time,uniform_coordinates,count_empty_sequence,count_rewardfortouch,count_trial_sequence,time_rewarddetection,average_response_time,count_rewarddetection,time_get_session_data,time_new_repeat_cycle,count_get_session_data,count_new_repeat_cycle,time_new_inline_script,count_new_inline_script,time_make_task_infinite,time_new_touch_response,count_make_task_infinite,count_new_touch_response,time_new_inline_script_1,count_new_inline_script_1,correct_new_touch_response,disable_garbage_collection,response_new_touch_response,response_time_new_touch_response
151,1,4,pending,099550000003293892,1,0,no,experiment,OMM Background Task,1024,Module2,3000,768,100,0,C:\Users\covop\AppData\Local\Temp\omm.log,0,NA,NA,Fri Nov 19 10:58:58 2021,None,no,18,2021-11-19 09:59:04,black,undefined,white,no,151,48000,0,NA,relative,0,1,Simple touch then sound&reward - via server,mono,no,no,omm,607141545,0,0,NA,legacy,legacy,NA,legacy,50,1,3000,NA,0,legacy,NA,no,2,1024,2,even,NA,NA,0,0,C:\Users\pbeli\Documents\GitHub\OMM,legacy,607136542,NA,1,0,NA,legacy,607136542,0,-16,607136544,0,3.3.10,Lentiform Loewenfeld,NA,NA,607136542,3000,yes,NA,NA,0,607136544,3000,NA,607136542,NA,0,NA,NA,NA,NA,607138545,0,0,NA,NA,0,yes,None,3000
151,1,4,pending,099550000003293903,1,0,no,experiment,OMM Background Task,1024,Module2,3000,768,100,0,C:\Users\covop\AppData\Local\Temp\omm.log,0,NA,NA,Fri Nov 19 10:58:18 2021,None,no,18,2021-11-19 09:58:24,black,undefined,white,no,151,48000,0,NA,relative,0,1,Simple touch then sound&reward - via server,mono,no,no,omm,607101545,0,0,NA,legacy,legacy,NA,legacy,50,1,3000,NA,0,legacy,NA,no,2,1024,2,even,NA,NA,0,0,C:\Users\pbeli\Documents\GitHub\OMM,legacy,607096543,NA,1,0,NA,legacy,607096543,0,-16,607096544,0,3.3.10,Lentiform Loewenfeld,NA,NA,607096543,3000,yes,NA,NA,0,607096544,3000,NA,607096543,NA,0,NA,NA,NA,NA,607098545,0,0,NA,NA,0,yes,None,3000
152,2,4,pending,099550000003293878,1,0,no,experiment,OMM Background Task,1024,Module4,3000,768,101,0,C:\Users\covop\AppData\Local\Temp\omm.log,0,NA,NA,Fri Nov 19 11:01:33 2021,None,no,18,2021-11-19 10:01:38,black,undefined,white,no,152,48000,0,NA,relative,0,2,Simple touch then sound&reward - via server,mono,no,no,omm,607252623,0,0,NA,legacy,legacy,NA,legacy,50,2,3000,NA,0,legacy,NA,no,2,1024,2,even,NA,NA,0,0,C:\Users\pbeli\Documents\GitHub\OMM,legacy,607247621,NA,1,0,NA,legacy,607247621,0,-16,607247622,0,3.3.10,Lentiform Loewenfeld,NA,NA,607247621,3000,yes,NA,NA,0,607247622,3000,NA,607247621,NA,0,NA,NA,NA,NA,607249623,0,0,NA,NA,0,yes,None,3000
152,2,4,pending,099550000003293903,1,0,no,experiment,OMM Background Task,1024,Module3,3000,768,101,0,C:\Users\covop\AppData\Local\Temp\omm.log,0,NA,NA,Thu Nov 18 11:49:30 2021,None,no,18,2021-11-18 10:49:36,black,undefined,white,no,152,48000,0,NA,relative,0,2,Simple touch then sound&reward - via server,mono,no,no,omm,89974019,0,0,NA,legacy,legacy,NA,legacy,50,2,3000,NA,0,legacy,NA,no,2,1024,2,even,NA,NA,0,0,C:\Users\pbeli\Documents\GitHub\OMM,legacy,89969015,NA,1,0,NA,legacy,89969015,0,-16,89969017,0,3.3.10,Lentiform Loewenfeld,NA,NA,89969015,3000,yes,NA,NA,0,89969017,3000,NA,89969015,NA,0,NA,NA,NA,NA,89971019,0,0,NA,NA,0,yes,None,3000
152,2,4,pending,099550000003293903,2,0,no,experiment,OMM Background Task,1024,Module3,3000,768,101,0,C:\Users\covop\AppData\Local\Temp\omm.log,0,NA,NA,Thu Nov 18 11:49:30 2021,None,no,18,2021-11-18 10:50:47,black,undefined,white,no,152,48000,0,NA,relative,0,2,Simple touch then sound&reward - via server,mono,no,no,omm,90045877,0,0,NA,legacy,legacy,NA,legacy,50,2,3000,NA,0,legacy,NA,no,2,1024,2,even,NA,NA,0,0,C:\Users\pbeli\Documents\GitHub\OMM,legacy,90040875,NA,1,0,NA,legacy,90040875,0,-16,90040876,0,3.3.10,Lentiform Loewenfeld,NA,NA,90040875,3000,yes,NA,NA,0,90040876,3000,NA,90040875,NA,0,NA,NA,NA,NA,90042877,0,0,NA,NA,0,yes,None,3000
152,2,4,pending,099550000003293903,3,0,no,experiment,OMM Background Task,1024,Module3,3000,768,101,0,C:\Users\covop\AppData\Local\Temp\omm.log,0,NA,NA,Thu Nov 18 11:49:30 2021,None,no,18,2021-11-18 10:57:40,black,undefined,white,no,152,48000,0,NA,relative,0,2,Simple touch then sound&reward - via server,mono,no,no,omm,90458662,0,0,NA,legacy,legacy,NA,legacy,50,2,3000,NA,0,legacy,NA,no,2,1024,2,even,NA,NA,0,0,C:\Users\pbeli\Documents\GitHub\OMM,legacy,90453656,NA,1,0,NA,legacy,90453656,0,-16,90453658,0,3.3.10,Lentiform Loewenfeld,NA,NA,90453656,3000,yes,NA,NA,0,90453658,3000,NA,90453656,NA,0,NA,NA,NA,NA,90455662,0,0,NA,NA,0,yes,None,3000
152,2,4,pending,099550000003293903,4,0,no,experiment,OMM Background Task,1024,Module3,3000,768,101,0,C:\Users\covop\AppData\Local\Temp\omm.log,0,NA,NA,Thu Nov 18 11:49:30 2021,None,no,18,2021-11-18 12:35:09,black,undefined,white,no,152,48000,0,NA,relative,0,2,Simple touch then sound&reward - via server,mono,no,no,omm,96307370,0,0,NA,legacy,legacy,NA,legacy,50,2,3000,NA,0,legacy,NA,no,2,1024,2,even,NA,NA,0,0,C:\Users\pbeli\Documents\GitHub\OMM,legacy,96302367,NA,1,0,NA,legacy,96302367,0,-16,96302369,0,3.3.10,Lentiform Loewenfeld,NA,NA,96302367,3000,yes,NA,NA,0,96302369,3000,NA,96302367,NA,0,NA,NA,NA,NA,96304370,0,0,NA,NA,0,yes,None,3000
152,2,4,pending,099550000003293903,5,0,no,experiment,OMM Background Task,1024,Module3,3000,768,101,0,C:\Users\covop\AppData\Local\Temp\omm.log,0,NA,NA,Thu Nov 18 11:49:30 2021,None,no,18,2021-11-18 12:40:32,black,undefined,white,no,152,48000,0,NA,relative,0,2,Simple touch then sound&reward - via server,mono,no,no,omm,96630397,0,0,NA,legacy,legacy,NA,legacy,50,2,3000,NA,0,legacy,NA,no,2,1024,2,even,NA,NA,0,0,C:\Users\pbeli\Documents\GitHub\OMM,legacy,96625394,NA,1,0,NA,legacy,96625395,0,-16,96625396,0,3.3.10,Lentiform Loewenfeld,NA,NA,96625395,3000,yes,NA,NA,0,96625396,3000,NA,96625395,NA,0,NA,NA,NA,NA,96627397,0,0,NA,NA,0,yes,None,3000
152,2,4,pending,099550000003293903,6,0,no,experiment,OMM Background Task,1024,Module3,3001,768,101,0,C:\Users\covop\AppData\Local\Temp\omm.log,0,NA,NA,Thu Nov 18 11:49:30 2021,None,no,18,2021-11-18 12:41:31,black,undefined,white,no,152,48000,0,NA,relative,0,2,Simple touch then sound&reward - via server,mono,no,no,omm,96689762,0,0,NA,legacy,legacy,NA,legacy,50,2,3001,NA,0,legacy,NA,no,2,1024,2,even,NA,NA,0,0,C:\Users\pbeli\Documents\GitHub\OMM,legacy,96684758,NA,1,0,NA,legacy,96684758,0,-16,96684760,0,3.3.10,Lentiform Loewenfeld,NA,NA,96684758,3001,yes,NA,NA,0,96684760,3001,NA,96684758,NA,0,NA,NA,NA,NA,96686761,0,0,NA,NA,0,yes,None,3001
152,2,4,pending,099550000003293903,7,0,no,experiment,OMM Background Task,1024,Module3,3000,768,101,0,C:\Users\covop\AppData\Local\Temp\omm.log,0,NA,NA,Thu Nov 18 11:49:30 2021,None,no,18,2021-11-19 10:00:04,black,undefined,white,no,152,48000,0,NA,relative,0,2,Simple touch then sound&reward - via server,mono,no,no,omm,607201618,0,0,NA,legacy,legacy,NA,legacy,50,2,3000,NA,0,legacy,NA,no,2,1024,2,even,NA,NA,0,0,C:\Users\pbeli\Documents\GitHub\OMM,legacy,607196616,NA,1,0,NA,legacy,607196616,0,-16,607196617,0,3.3.10,Lentiform Loewenfeld,NA,NA,607196616,3000,yes,NA,NA,0,607196617,3000,NA,607196616,NA,0,NA,NA,NA,NA,607198618,0,0,NA,NA,0,yes,None,3000
153,3,4,finished,099550000003293903,1,0,no,experiment,OMM Background Task,1024,Module3,3000,768,102,0,C:\Users\covop\AppData\Local\Temp\omm.log,0,NA,NA,Thu Nov 18 13:11:06 2021,None,no,18,2021-11-18 12:11:12,black,undefined,white,no,153,48000,0,NA,relative,0,3,Simple touch then sound&reward - via server,mono,no,no,omm,94870281,0,0,NA,legacy,legacy,NA,legacy,50,3,3000,NA,0,legacy,NA,no,2,1024,2,even,NA,NA,0,0,C:\Users\pbeli\Documents\GitHub\OMM,legacy,94865278,NA,1,0,NA,legacy,94865279,0,-16,94865280,0,3.3.10,Lentiform Loewenfeld,NA,NA,94865279,3000,yes,NA,NA,0,94865280,3000,NA,94865279,NA,0,NA,NA,NA,NA,94867281,0,0,NA,NA,0,yes,None,3000
153,3,4,finished,099550000003293903,2,0,no,experiment,OMM Background Task,1024,Module3,3000,768,102,0,C:\Users\covop\AppData\Local\Temp\omm.log,0,NA,NA,Thu Nov 18 13:11:06 2021,None,no,18,2021-11-18 12:30:47,black,undefined,white,no,153,48000,0,NA,relative,0,3,Simple touch then sound&reward - via server,mono,no,no,omm,96045746,0,0,NA,legacy,legacy,NA,legacy,50,3,3000,NA,0,legacy,NA,no,2,1024,2,even,NA,NA,0,0,C:\Users\pbeli\Documents\GitHub\OMM,legacy,96040744,NA,1,0,NA,legacy,96040744,0,-16,96040745,0,3.3.10,Lentiform Loewenfeld,NA,NA,96040744,3000,yes,NA,NA,0,96040745,3000,NA,96040744,NA,0,NA,NA,NA,NA,96042746,0,0,NA,NA,0,yes,None,3000
153,3,4,finished,099550000003293903,3,0,no,experiment,OMM Background Task,1024,Module3,3001,768,102,0,C:\Users\covop\AppData\Local\Temp\omm.log,0,NA,NA,Thu Nov 18 13:11:06 2021,None,no,18,2021-11-18 12:36:59,black,undefined,white,no,153,48000,0,NA,relative,0,3,Simple touch then sound&reward - via server,mono,no,no,omm,96416958,0,0,NA,legacy,legacy,NA,legacy,50,3,3001,NA,0,legacy,NA,no,2,1024,2,even,NA,NA,0,0,C:\Users\pbeli\Documents\GitHub\OMM,legacy,96411955,NA,1,0,NA,legacy,96411955,0,-16,96411956,0,3.3.10,Lentiform Loewenfeld,NA,NA,96411955,3001,yes,NA,NA,0,96411956,3001,NA,96411955,NA,0,NA,NA,NA,NA,96413957,0,0,NA,NA,0,yes,None,3001
154,4,4,finished,099550000003293948,1,0,no,experiment,OMM Background Task,1024,Module4,3000,768,103,0,C:\Users\covop\AppData\Local\Temp\omm.log,0,NA,NA,Fri Nov 19 11:10:39 2021,None,no,18,2021-11-19 10:10:45,black,undefined,white,no,154,48000,0,NA,relative,0,4,Simple touch then sound&reward - via server,mono,no,no,omm,607799046,0,0,NA,legacy,legacy,NA,legacy,50,4,3000,NA,0,legacy,NA,no,2,1024,2,even,NA,NA,0,0,C:\Users\pbeli\Documents\GitHub\OMM,legacy,607794044,NA,1,0,NA,legacy,607794044,0,-16,607794045,0,3.3.10,Lentiform Loewenfeld,NA,NA,607794044,3000,yes,NA,NA,0,607794045,3000,NA,607794044,NA,0,NA,NA,NA,NA,607796046,0,0,NA,NA,0,yes,None,3000
154,4,4,finished,099550000003293892,1,0,no,experiment,OMM Background Task,1024,Module3,3000,768,103,0,C:\Users\covop\AppData\Local\Temp\omm.log,0,NA,NA,Fri Nov 19 11:04:51 2021,None,no,18,2021-11-19 10:04:57,black,undefined,white,no,154,48000,0,NA,relative,0,4,Simple touch then sound&reward - via server,mono,no,no,omm,173696095,0,0,NA,legacy,legacy,NA,legacy,50,4,3000,NA,0,legacy,NA,no,2,1024,2,even,NA,NA,0,0,C:\Users\pbeli\Documents\GitHub\OMM,legacy,173691092,NA,1,0,NA,legacy,173691092,0,-16,173691094,0,3.3.10,Lentiform Loewenfeld,NA,NA,173691092,3000,yes,NA,NA,0,173691094,3000,NA,173691092,NA,0,NA,NA,NA,NA,173693095,0,0,NA,NA,0,yes,None,3000
154,4,4,finished,099550000003293878,1,0,no,experiment,OMM Background Task,1024,Module4,3000,768,103,0,C:\Users\covop\AppData\Local\Temp\omm.log,0,NA,NA,Fri Nov 19 11:00:39 2021,None,no,18,2021-11-19 10:00:45,black,undefined,white,no,154,48000,0,NA,relative,0,4,Simple touch then sound&reward - via server,mono,no,no,omm,607199311,0,0,NA,legacy,legacy,NA,legacy,50,4,3000,NA,0,legacy,NA,no,2,1024,2,even,NA,NA,0,0,C:\Users\pbeli\Documents\GitHub\OMM,legacy,607194309,NA,1,0,NA,legacy,607194309,0,-16,607194310,0,3.3.10,Lentiform Loewenfeld,NA,NA,607194309,3000,yes,NA,NA,0,607194310,3000,NA,607194309,NA,0,NA,NA,NA,NA,607196311,0,0,NA,NA,0,yes,None,3000
154,4,4,finished,099550000003293903,1,0,no,experiment,OMM Background Task,1024,Module3,3000,768,103,0,C:\Users\covop\AppData\Local\Temp\omm.log,0,NA,NA,Thu Nov 18 13:32:31 2021,None,no,18,2021-11-18 12:32:37,black,undefined,white,no,154,48000,0,NA,relative,0,4,Simple touch then sound&reward - via server,mono,no,no,omm,96155434,0,0,NA,legacy,legacy,NA,legacy,50,4,3000,NA,0,legacy,NA,no,2,1024,2,even,NA,NA,0,0,C:\Users\pbeli\Documents\GitHub\OMM,legacy,96150432,NA,1,0,NA,legacy,96150432,0,-16,96150433,0,3.3.10,Lentiform Loewenfeld,NA,NA,96150432,3000,yes,NA,NA,0,96150433,3000,NA,96150432,NA,0,NA,NA,NA,NA,96152434,0,0,NA,NA,0,yes,None,3000
154,4,4,finished,099550000003293903,2,0,no,experiment,OMM Background Task,1024,Module3,3001,768,103,0,C:\Users\covop\AppData\Local\Temp\omm.log,0,NA,NA,Thu Nov 18 13:32:31 2021,None,no,18,2021-11-18 12:42:06,black,undefined,white,no,154,48000,0,NA,relative,0,4,Simple touch then sound&reward - via server,mono,no,no,omm,96724699,0,0,NA,legacy,legacy,NA,legacy,50,4,3001,NA,0,legacy,NA,no,2,1024,2,even,NA,NA,0,0,C:\Users\pbeli\Documents\GitHub\OMM,legacy,96719695,NA,1,0,NA,legacy,96719695,0,-16,96719696,0,3.3.10,Lentiform Loewenfeld,NA,NA,96719695,3001,yes,NA,NA,0,96719696,3001,NA,96719695,NA,0,NA,NA,NA,NA,96721698,0,0,NA,NA,0,yes,None,3001
155,5,4,finished,099550000003293878,1,0,no,experiment,OMM Background Task,1024,Module2,3000,768,104,0,C:\Users\covop\AppData\Local\Temp\omm.log,0,NA,NA,Fri Nov 19 10:53:20 2021,None,no,18,2021-11-19 09:53:25,black,undefined,white,no,155,48000,0,NA,relative,0,5,Simple touch then sound&reward - via server,mono,no,no,omm,335798134,0,0,NA,legacy,legacy,NA,legacy,50,5,3000,NA,0,legacy,NA,no,2,1024,2,even,NA,NA,0,0,C:\Users\pbeli\Documents\GitHub\OMM,legacy,335793132,NA,1,0,NA,legacy,335793132,0,-16,335793133,0,3.3.10,Lentiform Loewenfeld,NA,NA,335793132,3000,yes,NA,NA,0,335793133,3000,NA,335793132,NA,0,NA,NA,NA,NA,335795134,0,0,NA,NA,0,yes,None,3000
155,5,4,finished,099550000003293892,1,0,no,experiment,OMM Background Task,1024,Module2,3001,768,104,0,C:\Users\covop\AppData\Local\Temp\omm.log,0,NA,NA,Fri Nov 19 10:50:49 2021,None,no,18,2021-11-19 09:50:54,black,undefined,white,no,155,48000,0,NA,relative,0,5,Simple touch then sound&reward - via server,mono,no,no,omm,335647118,0,0,NA,legacy,legacy,NA,legacy,50,5,3001,NA,0,legacy,NA,no,2,1024,2,even,NA,NA,0,0,C:\Users\pbeli\Documents\GitHub\OMM,legacy,335642115,NA,1,0,NA,legacy,335642115,0,-16,335642116,0,3.3.10,Lentiform Loewenfeld,NA,NA,335642115,3001,yes,NA,NA,0,335642116,3001,NA,335642115,NA,0,NA,NA,NA,NA,335644117,0,0,NA,NA,0,yes,None,3001
155,5,4,finished,099550000003293892,2,0,no,experiment,OMM Background Task,1024,Module2,3000,768,104,0,C:\Users\covop\AppData\Local\Temp\omm.log,0,NA,NA,Fri Nov 19 10:50:49 2021,None,no,18,2021-11-19 09:55:37,black,undefined,white,no,155,48000,0,NA,relative,0,5,Simple touch then sound&reward - via server,mono,no,no,omm,173136236,0,0,NA,legacy,legacy,NA,legacy,50,5,3000,NA,0,legacy,NA,no,2,1024,2,even,NA,NA,0,0,C:\Users\pbeli\Documents\GitHub\OMM,legacy,173131234,NA,1,0,NA,legacy,173131234,0,-16,173131235,0,3.3.10,Lentiform Loewenfeld,NA,NA,173131234,3000,yes,NA,NA,0,173131235,3000,NA,173131234,NA,0,NA,NA,NA,NA,173133236,0,0,NA,NA,0,yes,None,3000
155,5,4,finished,099550000003293903,1,0,no,experiment,OMM Background Task,1024,Module3,3000,768,104,0,C:\Users\covop\AppData\Local\Temp\omm.log,0,NA,NA,Thu Nov 18 13:33:21 2021,None,no,18,2021-11-18 12:33:27,black,undefined,white,no,155,48000,0,NA,relative,0,5,Simple touch then sound&reward - via server,mono,no,no,omm,96205147,0,0,NA,legacy,legacy,NA,legacy,50,5,3000,NA,0,legacy,NA,no,2,1024,2,even,NA,NA,0,0,C:\Users\pbeli\Documents\GitHub\OMM,legacy,96200145,NA,1,0,NA,legacy,96200145,0,-16,96200146,0,3.3.10,Lentiform Loewenfeld,NA,NA,96200145,3000,yes,NA,NA,0,96200146,3000,NA,96200145,NA,0,NA,NA,NA,NA,96202147,0,0,NA,NA,0,yes,None,3000
155,5,4,finished,099550000003293903,2,0,no,experiment,OMM Background Task,1024,Module3,3000,768,104,0,C:\Users\covop\AppData\Local\Temp\omm.log,0,NA,NA,Thu Nov 18 13:33:21 2021,None,no,18,2021-11-18 12:41:22,black,undefined,white,no,155,48000,0,NA,relative,0,5,Simple touch then sound&reward - via server,mono,no,no,omm,96680596,0,0,NA,legacy,legacy,NA,legacy,50,5,3000,NA,0,legacy,NA,no,2,1024,2,even,NA,NA,0,0,C:\Users\pbeli\Documents\GitHub\OMM,legacy,96675593,NA,1,0,NA,legacy,96675593,0,-16,96675595,0,3.3.10,Lentiform Loewenfeld,NA,NA,96675593,3000,yes,NA,NA,0,96675595,3000,NA,96675593,NA,0,NA,NA,NA,NA,96677596,0,0,NA,NA,0,yes,None,3000
155,5,4,finished,099550000003293903,3,0,no,experiment,OMM Background Task,1024,Module3,3000,768,104,0,C:\Users\covop\AppData\Local\Temp\omm.log,0,NA,NA,Thu Nov 18 13:33:21 2021,None,no,18,2021-11-19 09:58:16,black,undefined,white,no,155,48000,0,NA,relative,0,5,Simple touch then sound&reward - via server,mono,no,no,omm,607093773,0,0,NA,legacy,legacy,NA,legacy,50,5,3000,NA,0,legacy,NA,no,2,1024,2,even,NA,NA,0,0,C:\Users\pbeli\Documents\GitHub\OMM,legacy,607088770,NA,1,0,NA,legacy,607088770,0,-16,607088771,0,3.3.10,Lentiform Loewenfeld,NA,NA,607088770,3000,yes,NA,NA,0,607088771,3000,NA,607088770,NA,0,NA,NA,NA,NA,607090773,0,0,NA,NA,0,yes,None,3000
156,6,4,finished,099550000003293892,1,0,no,experiment,OMM Background Task,1024,Module2,3000,768,105,0,C:\Users\covop\AppData\Local\Temp\omm.log,0,NA,NA,Fri Nov 19 10:57:13 2021,None,no,18,2021-11-19 09:57:19,black,undefined,white,no,156,48000,0,NA,relative,0,6,Simple touch then sound&reward - via server,mono,no,no,omm,607036453,0,0,NA,legacy,legacy,NA,legacy,50,6,3000,NA,0,legacy,NA,no,2,1024,2,even,NA,NA,0,0,C:\Users\pbeli\Documents\GitHub\OMM,legacy,607031451,NA,1,0,NA,legacy,607031451,0,-16,607031452,0,3.3.10,Lentiform Loewenfeld,NA,NA,607031451,3000,yes,NA,NA,0,607031452,3000,NA,607031451,NA,0,NA,NA,NA,NA,607033453,0,0,NA,NA,0,yes,None,3000
156,6,4,finished,099550000003293878,1,0,no,experiment,OMM Background Task,1024,Module3,3000,768,105,0,C:\Users\covop\AppData\Local\Temp\omm.log,0,NA,NA,Fri Nov 19 11:07:17 2021,None,no,18,2021-11-19 10:07:24,black,undefined,white,no,156,48000,0,NA,relative,0,6,Simple touch then sound&reward - via server,mono,no,no,omm,173842634,0,0,NA,legacy,legacy,NA,legacy,50,6,3000,NA,0,legacy,NA,no,2,1024,2,even,NA,NA,0,0,C:\Users\pbeli\Documents\GitHub\OMM,legacy,173837631,NA,1,0,NA,legacy,173837631,0,-16,173837633,0,3.3.10,Lentiform Loewenfeld,NA,NA,173837631,3000,yes,NA,NA,0,173837633,3000,NA,173837631,NA,0,NA,NA,NA,NA,173839634,0,0,NA,NA,0,yes,None,3000
156,6,4,finished,099550000003293903,1,0,no,experiment,OMM Background Task,1024,Module3,905,768,105,0,C:\Users\covop\AppData\Local\Temp\omm.log,0,-356,152,Thu Nov 18 11:39:35 2021,9,no,18,2021-11-18 10:39:39,black,undefined,white,no,156,48000,0,NA,relative,0,6,Simple touch then sound&reward - via server,mono,no,no,omm,89377623,0,0,NA,legacy,legacy,NA,legacy,50,6,905,NA,0,legacy,NA,no,2,1024,2,even,NA,NA,0,0,C:\Users\pbeli\Documents\GitHub\OMM,legacy,89374714,NA,1,0,NA,legacy,89374714,0,-16,89374715,0,3.3.10,Lentiform Loewenfeld,NA,NA,89374714,905,yes,NA,NA,0,89374715,905,NA,89374714,NA,0,NA,NA,NA,NA,89376717,0,0,NA,NA,0,yes,9,905
156,6,4,finished,099550000003293903,2,0,no,experiment,OMM Background Task,1024,Module3,3000,768,105,0,C:\Users\covop\AppData\Local\Temp\omm.log,0,NA,NA,Thu Nov 18 11:39:35 2021,None,no,18,2021-11-19 09:54:36,black,undefined,white,no,156,48000,0,NA,relative,0,6,Simple touch then sound&reward - via server,mono,no,no,omm,173074547,0,0,NA,legacy,legacy,NA,legacy,50,6,3000,NA,0,legacy,NA,no,2,1024,2,even,NA,NA,0,0,C:\Users\pbeli\Documents\GitHub\OMM,legacy,173069544,NA,1,0,NA,legacy,173069544,0,-16,173069546,0,3.3.10,Lentiform Loewenfeld,NA,NA,173069544,3000,yes,NA,NA,0,173069546,3000,NA,173069544,NA,0,NA,NA,NA,NA,173071547,0,0,NA,NA,0,yes,None,3000
157,7,4,finished,099550000003293892,1,0,no,experiment,OMM Background Task,1024,Module4,3000,768,106,0,C:\Users\covop\AppData\Local\Temp\omm.log,0,NA,NA,Fri Nov 19 11:12:03 2021,None,no,18,2021-11-19 10:12:09,black,undefined,white,no,157,48000,0,NA,relative,0,7,Simple touch then sound&reward - via server,mono,no,no,omm,607883035,0,0,NA,legacy,legacy,NA,legacy,50,7,3000,NA,0,legacy,NA,no,2,1024,2,even,NA,NA,0,0,C:\Users\pbeli\Documents\GitHub\OMM,legacy,607878032,NA,1,0,NA,legacy,607878032,0,-16,607878034,0,3.3.10,Lentiform Loewenfeld,NA,NA,607878032,3000,yes,NA,NA,0,607878034,3000,NA,607878032,NA,0,NA,NA,NA,NA,607880035,0,0,NA,NA,0,yes,None,3000
157,7,4,finished,099550000003293903,1,0,no,experiment,OMM Background Task,1024,Module3,3000,768,106,0,C:\Users\covop\AppData\Local\Temp\omm.log,0,NA,NA,Thu Nov 18 13:32:18 2021,None,no,18,2021-11-18 12:32:24,black,undefined,white,no,157,48000,0,NA,relative,0,7,Simple touch then sound&reward - via server,mono,no,no,omm,96142129,0,0,NA,legacy,legacy,NA,legacy,50,7,3000,NA,0,legacy,NA,no,2,1024,2,even,NA,NA,0,0,C:\Users\pbeli\Documents\GitHub\OMM,legacy,96137127,NA,1,0,NA,legacy,96137127,0,-16,96137128,0,3.3.10,Lentiform Loewenfeld,NA,NA,96137127,3000,yes,NA,NA,0,96137128,3000,NA,96137127,NA,0,NA,NA,NA,NA,96139129,0,0,NA,NA,0,yes,None,3000
157,7,4,finished,099550000003293903,2,0,no,experiment,OMM Background Task,1024,Module3,3000,768,106,0,C:\Users\covop\AppData\Local\Temp\omm.log,0,NA,NA,Thu Nov 18 13:32:18 2021,None,no,18,2021-11-19 09:59:56,black,undefined,white,no,157,48000,0,NA,relative,0,7,Simple touch then sound&reward - via server,mono,no,no,omm,607193636,0,0,NA,legacy,legacy,NA,legacy,50,7,3000,NA,0,legacy,NA,no,2,1024,2,even,NA,NA,0,0,C:\Users\pbeli\Documents\GitHub\OMM,legacy,607188634,NA,1,0,NA,legacy,607188634,0,-16,607188635,0,3.3.10,Lentiform Loewenfeld,NA,NA,607188634,3000,yes,NA,NA,0,607188635,3000,NA,607188634,NA,0,NA,NA,NA,NA,607190636,0,0,NA,NA,0,yes,None,3000
158,8,4,finished,099550000003293892,1,0,no,experiment,OMM Background Task,1024,Module4,3001,768,107,0,C:\Users\covop\AppData\Local\Temp\omm.log,0,NA,NA,Fri Nov 19 11:11:36 2021,None,no,18,2021-11-19 10:11:42,black,undefined,white,no,158,48000,0,NA,relative,0,8,Simple touch then sound&reward - via server,mono,no,no,omm,607855686,0,0,NA,legacy,legacy,NA,legacy,50,8,3001,NA,0,legacy,NA,no,2,1024,2,even,NA,NA,0,0,C:\Users\pbeli\Documents\GitHub\OMM,legacy,607850683,NA,1,0,NA,legacy,607850683,0,-16,607850684,0,3.3.10,Lentiform Loewenfeld,NA,NA,607850683,3001,yes,NA,NA,0,607850684,3001,NA,607850683,NA,0,NA,NA,NA,NA,607852685,0,0,NA,NA,0,yes,None,3001
158,8,4,finished,099550000003293878,1,0,no,experiment,OMM Background Task,1024,Module2,3000,768,107,0,C:\Users\covop\AppData\Local\Temp\omm.log,0,NA,NA,Fri Nov 19 10:53:09 2021,None,no,18,2021-11-19 09:53:14,black,undefined,white,no,158,48000,0,NA,relative,0,8,Simple touch then sound&reward - via server,mono,no,no,omm,335787398,0,0,NA,legacy,legacy,NA,legacy,50,8,3000,NA,0,legacy,NA,no,2,1024,2,even,NA,NA,0,0,C:\Users\pbeli\Documents\GitHub\OMM,legacy,335782396,NA,1,0,NA,legacy,335782396,0,-16,335782397,0,3.3.10,Lentiform Loewenfeld,NA,NA,335782396,3000,yes,NA,NA,0,335782397,3000,NA,335782396,NA,0,NA,NA,NA,NA,335784398,0,0,NA,NA,0,yes,None,3000
158,8,4,finished,099550000003293903,1,0,no,experiment,OMM Background Task,1024,Module3,3001,768,107,0,C:\Users\covop\AppData\Local\Temp\omm.log,0,NA,NA,Thu Nov 18 11:58:00 2021,None,no,18,2021-11-18 10:58:06,black,undefined,white,no,158,48000,0,NA,relative,0,8,Simple touch then sound&reward - via server,mono,no,no,omm,90484465,0,0,NA,legacy,legacy,NA,legacy,50,8,3001,NA,0,legacy,NA,no,2,1024,2,even,NA,NA,0,0,C:\Users\pbeli\Documents\GitHub\OMM,legacy,90479460,NA,1,0,NA,legacy,90479461,0,-16,90479462,0,3.3.10,Lentiform Loewenfeld,NA,NA,90479461,3001,yes,NA,NA,0,90479462,3001,NA,90479461,NA,0,NA,NA,NA,NA,90481464,0,0,NA,NA,0,yes,None,3001
158,8,4,finished,099550000003293903,2,0,no,experiment,OMM Background Task,1024,Module3,3001,768,107,0,C:\Users\covop\AppData\Local\Temp\omm.log,0,NA,NA,Thu Nov 18 11:58:00 2021,None,no,18,2021-11-18 12:10:04,black,undefined,white,no,158,48000,0,NA,relative,0,8,Simple touch then sound&reward - via server,mono,no,no,omm,94802235,0,0,NA,legacy,legacy,NA,legacy,50,8,3001,NA,0,legacy,NA,no,2,1024,2,even,NA,NA,0,0,C:\Users\pbeli\Documents\GitHub\OMM,legacy,94797232,NA,1,0,NA,legacy,94797232,0,-16,94797233,0,3.3.10,Lentiform Loewenfeld,NA,NA,94797232,3001,yes,NA,NA,0,94797233,3001,NA,94797232,NA,0,NA,NA,NA,NA,94799234,0,0,NA,NA,0,yes,None,3001
158,8,4,finished,099550000003293903,3,0,no,experiment,OMM Background Task,1024,Module3,3000,768,107,0,C:\Users\covop\AppData\Local\Temp\omm.log,0,NA,NA,Thu Nov 18 11:58:00 2021,None,no,18,2021-11-18 12:44:06,black,undefined,white,no,158,48000,0,NA,relative,0,8,Simple touch then sound&reward - via server,mono,no,no,omm,96844482,0,0,NA,legacy,legacy,NA,legacy,50,8,3000,NA,0,legacy,NA,no,2,1024,2,even,NA,NA,0,0,C:\Users\pbeli\Documents\GitHub\OMM,legacy,96839480,NA,1,0,NA,legacy,96839480,0,-16,96839481,0,3.3.10,Lentiform Loewenfeld,NA,NA,96839480,3000,yes,NA,NA,0,96839481,3000,NA,96839480,NA,0,NA,NA,NA,NA,96841482,0,0,NA,NA,0,yes,None,3000
159,9,4,finished,099550000003293903,1,0,no,experiment,OMM Background Task,1024,Module3,3001,768,108,0,C:\Users\covop\AppData\Local\Temp\omm.log,0,NA,NA,Thu Nov 18 13:36:39 2021,None,no,18,2021-11-18 12:36:45,black,undefined,white,no,159,48000,0,NA,relative,0,9,Simple touch then sound&reward - via server,mono,no,no,omm,96403623,0,0,NA,legacy,legacy,NA,legacy,50,9,3001,NA,0,legacy,NA,no,2,1024,2,even,NA,NA,0,0,C:\Users\pbeli\Documents\GitHub\OMM,legacy,96398620,NA,1,0,NA,legacy,96398620,0,-16,96398622,0,3.3.10,Lentiform Loewenfeld,NA,NA,96398620,3001,yes,NA,NA,0,96398622,3001,NA,96398620,NA,0,NA,NA,NA,NA,96400622,0,0,NA,NA,0,yes,None,3001
159,9,4,finished,099550000003293892,1,0,no,experiment,OMM Background Task,1024,Module3,3001,768,108,0,C:\Users\covop\AppData\Local\Temp\omm.log,0,NA,NA,Fri Nov 19 10:51:25 2021,None,no,18,2021-11-19 09:51:31,black,undefined,white,no,159,48000,0,NA,relative,0,9,Simple touch then sound&reward - via server,mono,no,no,omm,172890349,0,0,NA,legacy,legacy,NA,legacy,50,9,3001,NA,0,legacy,NA,no,2,1024,2,even,NA,NA,0,0,C:\Users\pbeli\Documents\GitHub\OMM,legacy,172885345,NA,1,0,NA,legacy,172885346,0,-16,172885347,0,3.3.10,Lentiform Loewenfeld,NA,NA,172885346,3001,yes,NA,NA,0,172885347,3001,NA,172885346,NA,0,NA,NA,NA,NA,172887348,0,0,NA,NA,0,yes,None,3001
159,9,4,finished,099550000003293892,2,0,no,experiment,OMM Background Task,1024,Module3,3001,768,108,0,C:\Users\covop\AppData\Local\Temp\omm.log,0,NA,NA,Fri Nov 19 10:51:25 2021,None,no,18,2021-11-19 09:57:12,black,undefined,white,no,159,48000,0,NA,relative,0,9,Simple touch then sound&reward - via server,mono,no,no,omm,607029305,0,0,NA,legacy,legacy,NA,legacy,50,9,3001,NA,0,legacy,NA,no,2,1024,2,even,NA,NA,0,0,C:\Users\pbeli\Documents\GitHub\OMM,legacy,607024302,NA,1,0,NA,legacy,607024302,0,-16,607024303,0,3.3.10,Lentiform Loewenfeld,NA,NA,607024302,3001,yes,NA,NA,0,607024303,3001,NA,607024302,NA,0,NA,NA,NA,NA,607026304,0,0,NA,NA,0,yes,None,3001
159,9,4,finished,099550000003293892,3,0,no,experiment,OMM Background Task,1024,Module3,3000,768,108,0,C:\Users\covop\AppData\Local\Temp\omm.log,0,NA,NA,Fri Nov 19 10:51:25 2021,None,no,18,2021-11-19 10:13:48,black,undefined,white,no,159,48000,0,NA,relative,0,9,Simple touch then sound&reward - via server,mono,no,no,omm,608025839,0,0,NA,legacy,legacy,NA,legacy,50,9,3000,NA,0,legacy,NA,no,2,1024,2,even,NA,NA,0,0,C:\Users\pbeli\Documents\GitHub\OMM,legacy,608020837,NA,1,0,NA,legacy,608020837,0,-16,608020838,0,3.3.10,Lentiform Loewenfeld,NA,NA,608020837,3000,yes,NA,NA,0,608020838,3000,NA,608020837,NA,0,NA,NA,NA,NA,608022839,0,0,NA,NA,0,yes,None,3000
160,10,4,finished,099550000003505539,1,100,no,experiment,OMM Background Task,1024,Module4,1892,768,109,1,C:\Users\covop\AppData\Local\Temp\omm.log,100,26,13,Wed Nov 17 11:04:21 2021,11,no,18,2021-11-17 10:04:29,black,undefined,white,no,160,48000,0,434617866,relative,0,10,Simple touch then sound&reward - via server,mono,no,no,omm,434621823,0,0,NA,legacy,legacy,NA,legacy,50,10,1892,NA,1,legacy,NA,no,2,1024,2,even,434620323,NA,0,0,C:\Users\pbeli\Documents\GitHub\OMM,legacy,434613969,434617866,1,0,NA,legacy,434613969,0,-16,434613971,0,3.3.10,Lentiform Loewenfeld,NA,434618318,434613969,1892,yes,NA,NA,0,434613971,1892,NA,434613969,NA,0,NA,NA,NA,NA,434615972,0,0,NA,NA,1,yes,11,1892
160,10,4,finished,099550000003293892,1,0,no,experiment,OMM Background Task,1024,Module4,3000,768,109,0,C:\Users\covop\AppData\Local\Temp\omm.log,0,NA,NA,Fri Nov 19 11:17:53 2021,None,no,18,2021-11-19 10:17:59,black,undefined,white,no,160,48000,0,NA,relative,0,10,Simple touch then sound&reward - via server,mono,no,no,omm,608233059,0,0,NA,legacy,legacy,NA,legacy,50,10,3000,NA,0,legacy,NA,no,2,1024,2,even,NA,NA,0,0,C:\Users\pbeli\Documents\GitHub\OMM,legacy,608228056,NA,1,0,NA,legacy,608228056,0,-16,608228058,0,3.3.10,Lentiform Loewenfeld,NA,NA,608228056,3000,yes,NA,NA,0,608228058,3000,NA,608228056,NA,0,NA,NA,NA,NA,608230059,0,0,NA,NA,0,yes,None,3000
160,10,4,finished,099550000003293903,1,0,no,experiment,OMM Background Task,1024,Module2,3000,768,109,0,C:\Users\covop\AppData\Local\Temp\omm.log,0,NA,NA,Fri Nov 19 10:55:10 2021,None,no,18,2021-11-19 09:55:15,black,undefined,white,no,160,48000,0,NA,relative,0,10,Simple touch then sound&reward - via server,mono,no,no,omm,335908213,0,0,NA,legacy,legacy,NA,legacy,50,10,3000,NA,0,legacy,NA,no,2,1024,2,even,NA,NA,0,0,C:\Users\pbeli\Documents\GitHub\OMM,legacy,335903211,NA,1,0,NA,legacy,335903211,0,-16,335903212,0,3.3.10,Lentiform Loewenfeld,NA,NA,335903211,3000,yes,NA,NA,0,335903212,3000,NA,335903211,NA,0,NA,NA,NA,NA,335905213,0,0,NA,NA,0,yes,None,3000
160,10,4,finished,099550000003293878,1,0,no,experiment,OMM Background Task,1024,Module4,3000,768,109,0,C:\Users\covop\AppData\Local\Temp\omm.log,0,NA,NA,Fri Nov 19 11:16:20 2021,None,no,18,2021-11-19 10:16:25,black,undefined,white,no,160,48000,0,NA,relative,0,10,Simple touch then sound&reward - via server,mono,no,no,omm,608139526,0,0,NA,legacy,legacy,NA,legacy,50,10,3000,NA,0,legacy,NA,no,2,1024,2,even,NA,NA,0,0,C:\Users\pbeli\Documents\GitHub\OMM,legacy,608134524,NA,1,0,NA,legacy,608134524,0,-16,608134525,0,3.3.10,Lentiform Loewenfeld,NA,NA,608134524,3000,yes,NA,NA,0,608134525,3000,NA,608134524,NA,0,NA,NA,NA,NA,608136526,0,0,NA,NA,0,yes,None,3000
161,11,4,finished,099550000003293892,1,0,no,experiment,OMM Background Task,1024,Module2,3000,768,110,0,C:\Users\covop\AppData\Local\Temp\omm.log,0,NA,NA,Fri Nov 19 10:59:09 2021,None,no,18,2021-11-19 09:59:16,black,undefined,white,no,161,48000,0,NA,relative,0,11,Simple touch then sound&reward - via server,mono,no,no,omm,607153030,0,0,NA,legacy,legacy,NA,legacy,50,11,3000,NA,0,legacy,NA,no,2,1024,2,even,NA,NA,0,0,C:\Users\pbeli\Documents\GitHub\OMM,legacy,607148027,NA,1,0,NA,legacy,607148027,0,-16,607148029,0,3.3.10,Lentiform Loewenfeld,NA,NA,607148027,3000,yes,NA,NA,0,607148029,3000,NA,607148027,NA,0,NA,NA,NA,NA,607150030,0,0,NA,NA,0,yes,None,3000
161,11,4,finished,099550000003293892,2,0,no,experiment,OMM Background Task,1024,Module2,3000,768,110,0,C:\Users\covop\AppData\Local\Temp\omm.log,0,NA,NA,Fri Nov 19 10:59:09 2021,None,no,18,2021-11-19 10:09:26,black,undefined,white,no,161,48000,0,NA,relative,0,11,Simple touch then sound&reward - via server,mono,no,no,omm,336759141,0,0,NA,legacy,legacy,NA,legacy,50,11,3000,NA,0,legacy,NA,no,2,1024,2,even,NA,NA,0,0,C:\Users\pbeli\Documents\GitHub\OMM,legacy,336754139,NA,1,0,NA,legacy,336754139,0,-16,336754140,0,3.3.10,Lentiform Loewenfeld,NA,NA,336754139,3000,yes,NA,NA,0,336754140,3000,NA,336754139,NA,0,NA,NA,NA,NA,336756141,0,0,NA,NA,0,yes,None,3000
161,11,4,finished,099550000003293892,3,0,no,experiment,OMM Background Task,1024,Module2,3000,768,110,0,C:\Users\covop\AppData\Local\Temp\omm.log,0,NA,NA,Fri Nov 19 10:59:09 2021,None,no,18,2021-11-19 10:10:55,black,undefined,white,no,161,48000,0,NA,relative,0,11,Simple touch then sound&reward - via server,mono,no,no,omm,607852069,0,0,NA,legacy,legacy,NA,legacy,50,11,3000,NA,0,legacy,NA,no,2,1024,2,even,NA,NA,0,0,C:\Users\pbeli\Documents\GitHub\OMM,legacy,607847067,NA,1,0,NA,legacy,607847067,0,-16,607847068,0,3.3.10,Lentiform Loewenfeld,NA,NA,607847067,3000,yes,NA,NA,0,607847068,3000,NA,607847067,NA,0,NA,NA,NA,NA,607849069,0,0,NA,NA,0,yes,None,3000
161,11,4,finished,099550000003293892,4,0,no,experiment,OMM Background Task,1024,Module2,3000,768,110,0,C:\Users\covop\AppData\Local\Temp\omm.log,0,NA,NA,Fri Nov 19 10:59:09 2021,None,no,18,2021-11-19 10:14:22,black,undefined,white,no,161,48000,0,NA,relative,0,11,Simple touch then sound&reward - via server,mono,no,no,omm,608059128,0,0,NA,legacy,legacy,NA,legacy,50,11,3000,NA,0,legacy,NA,no,2,1024,2,even,NA,NA,0,0,C:\Users\pbeli\Documents\GitHub\OMM,legacy,608054125,NA,1,0,NA,legacy,608054125,0,-16,608054127,0,3.3.10,Lentiform Loewenfeld,NA,NA,608054125,3000,yes,NA,NA,0,608054127,3000,NA,608054125,NA,0,NA,NA,NA,NA,608056128,0,0,NA,NA,0,yes,None,3000
161,11,4,finished,099550000003293892,5,0,no,experiment,OMM Background Task,1024,Module2,3000,768,110,0,C:\Users\covop\AppData\Local\Temp\omm.log,0,NA,NA,Fri Nov 19 10:59:09 2021,None,no,18,2021-11-19 10:24:30,black,undefined,white,no,161,48000,0,NA,relative,0,11,Simple touch then sound&reward - via server,mono,no,no,omm,608624057,0,0,NA,legacy,legacy,NA,legacy,50,11,3000,NA,0,legacy,NA,no,2,1024,2,even,NA,NA,0,0,C:\Users\pbeli\Documents\GitHub\OMM,legacy,608619054,NA,1,0,NA,legacy,608619054,0,-16,608619056,0,3.3.10,Lentiform Loewenfeld,NA,NA,608619054,3000,yes,NA,NA,0,608619056,3000,NA,608619054,NA,0,NA,NA,NA,NA,608621057,0,0,NA,NA,0,yes,None,3000
162,12,4,finished,099550000003293892,1,0,no,experiment,OMM Background Task,1024,Module2,3000,768,111,0,C:\Users\covop\AppData\Local\Temp\omm.log,0,NA,NA,Fri Nov 19 11:13:06 2021,None,no,18,2021-11-19 10:13:12,black,undefined,white,no,162,48000,0,NA,relative,0,12,Simple touch then sound&reward - via server,mono,no,no,omm,607989286,0,0,NA,legacy,legacy,NA,legacy,50,12,3000,NA,0,legacy,NA,no,2,1024,2,even,NA,NA,0,0,C:\Users\pbeli\Documents\GitHub\OMM,legacy,607984283,NA,1,0,NA,legacy,607984283,0,-16,607984285,0,3.3.10,Lentiform Loewenfeld,NA,NA,607984283,3000,yes,NA,NA,0,607984285,3000,NA,607984283,NA,0,NA,NA,NA,NA,607986286,0,0,NA,NA,0,yes,None,3000
162,12,4,finished,099550000003293903,1,0,no,experiment,OMM Background Task,1024,Module3,3000,768,111,0,C:\Users\covop\AppData\Local\Temp\omm.log,0,NA,NA,Thu Nov 18 10:55:32 2021,None,no,18,2021-11-18 09:55:38,black,undefined,white,no,162,48000,0,NA,relative,0,12,Simple touch then sound&reward - via server,mono,no,no,omm,86736699,0,0,NA,legacy,legacy,NA,legacy,50,12,3000,NA,0,legacy,NA,no,2,1024,2,even,NA,NA,0,0,C:\Users\pbeli\Documents\GitHub\OMM,legacy,86731697,NA,1,0,NA,legacy,86731697,0,-16,86731698,0,3.3.10,Lentiform Loewenfeld,NA,NA,86731697,3000,yes,NA,NA,0,86731698,3000,NA,86731697,NA,0,NA,NA,NA,NA,86733699,0,0,NA,NA,0,yes,None,3000
162,12,4,finished,099550000003293903,2,0,no,experiment,OMM Background Task,1024,Module3,3001,768,111,0,C:\Users\covop\AppData\Local\Temp\omm.log,0,NA,NA,Thu Nov 18 10:55:32 2021,None,no,18,2021-11-18 12:13:02,black,undefined,white,no,162,48000,0,NA,relative,0,12,Simple touch then sound&reward - via server,mono,no,no,omm,94980238,0,0,NA,legacy,legacy,NA,legacy,50,12,3001,NA,0,legacy,NA,no,2,1024,2,even,NA,NA,0,0,C:\Users\pbeli\Documents\GitHub\OMM,legacy,94975235,NA,1,0,NA,legacy,94975235,0,-16,94975236,0,3.3.10,Lentiform Loewenfeld,NA,NA,94975235,3001,yes,NA,NA,0,94975236,3001,NA,94975235,NA,0,NA,NA,NA,NA,94977237,0,0,NA,NA,0,yes,None,3001
163,13,4,finished,099550000003293892,1,0,no,experiment,OMM Background Task,1024,Module3,3000,768,112,0,C:\Users\covop\AppData\Local\Temp\omm.log,0,NA,NA,Fri Nov 19 10:53:39 2021,None,no,18,2021-11-19 09:53:45,black,undefined,white,no,163,48000,0,NA,relative,0,13,Simple touch then sound&reward - via server,mono,no,no,omm,173024154,0,0,NA,legacy,legacy,NA,legacy,50,13,3000,NA,0,legacy,NA,no,2,1024,2,even,NA,NA,0,0,C:\Users\pbeli\Documents\GitHub\OMM,legacy,173019151,NA,1,0,NA,legacy,173019151,0,-16,173019153,0,3.3.10,Lentiform Loewenfeld,NA,NA,173019151,3000,yes,NA,NA,0,173019153,3000,NA,173019151,NA,0,NA,NA,NA,NA,173021154,0,0,NA,NA,0,yes,None,3000
163,13,4,finished,099550000003293892,2,0,no,experiment,OMM Background Task,1024,Module3,3000,768,112,0,C:\Users\covop\AppData\Local\Temp\omm.log,0,NA,NA,Fri Nov 19 10:53:39 2021,None,no,18,2021-11-19 10:59:44,black,undefined,white,no,163,48000,0,NA,relative,0,13,Simple touch then sound&reward - via server,mono,no,no,omm,610781567,0,0,NA,legacy,legacy,NA,legacy,50,13,3000,NA,0,legacy,NA,no,2,1024,2,even,NA,NA,0,0,C:\Users\pbeli\Documents\GitHub\OMM,legacy,610776565,NA,1,0,NA,legacy,610776565,0,-16,610776566,0,3.3.10,Lentiform Loewenfeld,NA,NA,610776565,3000,yes,NA,NA,0,610776566,3000,NA,610776565,NA,0,NA,NA,NA,NA,610778567,0,0,NA,NA,0,yes,None,3000
163,13,4,finished,099550000003293903,1,100,no,experiment,OMM Background Task,1024,Module3,1031,768,112,1,C:\Users\covop\AppData\Local\Temp\omm.log,100,249,182,Thu Nov 18 11:58:07 2021,11,no,18,2021-11-18 10:58:15,black,undefined,white,no,163,48000,0,90489422,relative,0,13,Simple touch then sound&reward - via server,mono,no,no,omm,90493377,0,0,NA,legacy,legacy,NA,legacy,50,13,1031,NA,1,legacy,NA,no,2,1024,2,even,90491876,NA,0,0,C:\Users\pbeli\Documents\GitHub\OMM,legacy,90486385,90489422,1,0,NA,legacy,90486386,0,-16,90486387,0,3.3.10,Lentiform Loewenfeld,NA,90489872,90486386,1031,yes,NA,NA,0,90486387,1031,NA,90486386,NA,0,NA,NA,NA,NA,90488388,0,0,NA,NA,1,yes,11,1031
163,13,4,finished,099550000003293903,2,0,no,experiment,OMM Background Task,1024,Module3,3000,768,112,0,C:\Users\covop\AppData\Local\Temp\omm.log,0,NA,NA,Thu Nov 18 11:58:07 2021,None,no,18,2021-11-18 12:13:33,black,undefined,white,no,163,48000,0,90489422,relative,0,13,Simple touch then sound&reward - via server,mono,no,no,omm,95011590,0,0,NA,legacy,legacy,NA,legacy,50,13,3000,NA,0,legacy,NA,no,2,1024,2,even,90491876,NA,0,0,C:\Users\pbeli\Documents\GitHub\OMM,legacy,95006587,90489422,1,0,NA,legacy,95006587,0,-16,95006589,0,3.3.10,Lentiform Loewenfeld,NA,90489872,95006587,3000,yes,NA,NA,0,95006589,3000,NA,95006587,NA,0,NA,NA,NA,NA,95008590,0,0,NA,NA,0,yes,None,3000
163,13,4,finished,099550000003293878,1,0,no,experiment,OMM Background Task,1024,Module4,3000,768,112,0,C:\Users\covop\AppData\Local\Temp\omm.log,0,NA,NA,Fri Nov 19 11:03:21 2021,None,no,18,2021-11-19 10:03:27,black,undefined,white,no,163,48000,0,NA,relative,0,13,Simple touch then sound&reward - via server,mono,no,no,omm,607361488,0,0,NA,legacy,legacy,NA,legacy,50,13,3000,NA,0,legacy,NA,no,2,1024,2,even,NA,NA,0,0,C:\Users\pbeli\Documents\GitHub\OMM,legacy,607356486,NA,1,0,NA,legacy,607356486,0,-16,607356487,0,3.3.10,Lentiform Loewenfeld,NA,NA,607356486,3000,yes,NA,NA,0,607356487,3000,NA,607356486,NA,0,NA,NA,NA,NA,607358488,0,0,NA,NA,0,yes,None,3000
163,13,4,finished,099550000003293878,2,0,no,experiment,OMM Background Task,1024,Module4,3000,768,112,0,C:\Users\covop\AppData\Local\Temp\omm.log,0,NA,NA,Fri Nov 19 11:03:21 2021,None,no,18,2021-11-19 10:05:28,black,undefined,white,no,163,48000,0,NA,relative,0,13,Simple touch then sound&reward - via server,mono,no,no,omm,336521501,0,0,NA,legacy,legacy,NA,legacy,50,13,3000,NA,0,legacy,NA,no,2,1024,2,even,NA,NA,0,0,C:\Users\pbeli\Documents\GitHub\OMM,legacy,336516498,NA,1,0,NA,legacy,336516498,0,-16,336516500,0,3.3.10,Lentiform Loewenfeld,NA,NA,336516499,3000,yes,NA,NA,0,336516500,3000,NA,336516498,NA,0,NA,NA,NA,NA,336518501,0,0,NA,NA,0,yes,None,3000
164,14,4,finished,099550000003505539,1,0,no,experiment,OMM Background Task,1024,Module4,3000,768,113,0,C:\Users\covop\AppData\Local\Temp\omm.log,0,NA,NA,Wed Nov 17 10:59:07 2021,None,no,18,2021-11-17 09:59:12,black,undefined,white,no,164,48000,0,NA,relative,0,14,Simple touch then sound&reward - via server,mono,no,no,omm,434304722,0,0,NA,legacy,legacy,NA,legacy,50,14,3000,NA,0,legacy,NA,no,2,1024,2,even,NA,NA,0,0,C:\Users\pbeli\Documents\GitHub\OMM,legacy,434299720,NA,1,0,NA,legacy,434299720,0,-16,434299721,0,3.3.10,Lentiform Loewenfeld,NA,NA,434299720,3000,yes,NA,NA,0,434299721,3000,NA,434299720,NA,0,NA,NA,NA,NA,434301722,0,0,NA,NA,0,yes,None,3000
164,14,4,finished,099550000003293878,1,0,no,experiment,OMM Background Task,1024,Module4,3000,768,113,0,C:\Users\covop\AppData\Local\Temp\omm.log,0,NA,NA,Fri Nov 19 11:16:56 2021,None,no,18,2021-11-19 10:17:02,black,undefined,white,no,164,48000,0,NA,relative,0,14,Simple touch then sound&reward - via server,mono,no,no,omm,608176223,0,0,NA,legacy,legacy,NA,legacy,50,14,3000,NA,0,legacy,NA,no,2,1024,2,even,NA,NA,0,0,C:\Users\pbeli\Documents\GitHub\OMM,legacy,608171221,NA,1,0,NA,legacy,608171221,0,-16,608171222,0,3.3.10,Lentiform Loewenfeld,NA,NA,608171221,3000,yes,NA,NA,0,608171223,3000,NA,608171221,NA,0,NA,NA,NA,NA,608173223,0,0,NA,NA,0,yes,None,3000
164,14,4,finished,099550000003293903,1,0,no,experiment,OMM Background Task,1024,Module3,3001,768,113,0,C:\Users\covop\AppData\Local\Temp\omm.log,0,NA,NA,Thu Nov 18 13:25:29 2021,None,no,18,2021-11-18 12:25:35,black,undefined,white,no,164,48000,0,NA,relative,0,14,Simple touch then sound&reward - via server,mono,no,no,omm,95733750,0,0,NA,legacy,legacy,NA,legacy,50,14,3001,NA,0,legacy,NA,no,2,1024,2,even,NA,NA,0,0,C:\Users\pbeli\Documents\GitHub\OMM,legacy,95728747,NA,1,0,NA,legacy,95728747,0,-16,95728748,0,3.3.10,Lentiform Loewenfeld,NA,NA,95728747,3001,yes,NA,NA,0,95728748,3001,NA,95728747,NA,0,NA,NA,NA,NA,95730749,0,0,NA,NA,0,yes,None,3001
164,14,4,finished,099550000003293903,2,0,no,experiment,OMM Background Task,1024,Module3,3000,768,113,0,C:\Users\covop\AppData\Local\Temp\omm.log,0,NA,NA,Thu Nov 18 13:25:29 2021,None,no,18,2021-11-19 10:00:11,black,undefined,white,no,164,48000,0,NA,relative,0,14,Simple touch then sound&reward - via server,mono,no,no,omm,607208670,0,0,NA,legacy,legacy,NA,legacy,50,14,3000,NA,0,legacy,NA,no,2,1024,2,even,NA,NA,0,0,C:\Users\pbeli\Documents\GitHub\OMM,legacy,607203668,NA,1,0,NA,legacy,607203668,0,-16,607203669,0,3.3.10,Lentiform Loewenfeld,NA,NA,607203668,3000,yes,NA,NA,0,607203669,3000,NA,607203668,NA,0,NA,NA,NA,NA,607205670,0,0,NA,NA,0,yes,None,3000
164,14,4,finished,099550000003293892,1,0,no,experiment,OMM Background Task,1024,Module3,3000,768,113,0,C:\Users\covop\AppData\Local\Temp\omm.log,0,NA,NA,Fri Nov 19 10:51:50 2021,None,no,18,2021-11-19 09:51:56,black,undefined,white,no,164,48000,0,NA,relative,0,14,Simple touch then sound&reward - via server,mono,no,no,omm,172914914,0,0,NA,legacy,legacy,NA,legacy,50,14,3000,NA,0,legacy,NA,no,2,1024,2,even,NA,NA,0,0,C:\Users\pbeli\Documents\GitHub\OMM,legacy,172909912,NA,1,0,NA,legacy,172909912,0,-16,172909913,0,3.3.10,Lentiform Loewenfeld,NA,NA,172909912,3000,yes,NA,NA,0,172909913,3000,NA,172909912,NA,0,NA,NA,NA,NA,172911914,0,0,NA,NA,0,yes,None,3000
164,14,4,finished,099550000003293892,2,0,no,experiment,OMM Background Task,1024,Module3,3000,768,113,0,C:\Users\covop\AppData\Local\Temp\omm.log,0,NA,NA,Fri Nov 19 10:51:50 2021,None,no,18,2021-11-19 09:55:31,black,undefined,white,no,164,48000,0,NA,relative,0,14,Simple touch then sound&reward - via server,mono,no,no,omm,173130062,0,0,NA,legacy,legacy,NA,legacy,50,14,3000,NA,0,legacy,NA,no,2,1024,2,even,NA,NA,0,0,C:\Users\pbeli\Documents\GitHub\OMM,legacy,173125060,NA,1,0,NA,legacy,173125060,0,-16,173125061,0,3.3.10,Lentiform Loewenfeld,NA,NA,173125060,3000,yes,NA,NA,0,173125061,3000,NA,173125060,NA,0,NA,NA,NA,NA,173127062,0,0,NA,NA,0,yes,None,3000
164,14,4,finished,099550000003293892,3,0,no,experiment,OMM Background Task,1024,Module3,3000,768,113,0,C:\Users\covop\AppData\Local\Temp\omm.log,0,NA,NA,Fri Nov 19 10:51:50 2021,None,no,18,2021-11-19 09:58:57,black,undefined,white,no,164,48000,0,NA,relative,0,14,Simple touch then sound&reward - via server,mono,no,no,omm,607134862,0,0,NA,legacy,legacy,NA,legacy,50,14,3000,NA,0,legacy,NA,no,2,1024,2,even,NA,NA,0,0,C:\Users\pbeli\Documents\GitHub\OMM,legacy,607129860,NA,1,0,NA,legacy,607129860,0,-16,607129861,0,3.3.10,Lentiform Loewenfeld,NA,NA,607129860,3000,yes,NA,NA,0,607129861,3000,NA,607129860,NA,0,NA,NA,NA,NA,607131862,0,0,NA,NA,0,yes,None,3000
164,14,4,finished,099550000003293892,4,0,no,experiment,OMM Background Task,1024,Module3,3000,768,113,0,C:\Users\covop\AppData\Local\Temp\omm.log,0,NA,NA,Fri Nov 19 10:51:50 2021,None,no,18,2021-11-19 10:14:08,black,undefined,white,no,164,48000,0,NA,relative,0,14,Simple touch then sound&reward - via server,mono,no,no,omm,608045130,0,0,NA,legacy,legacy,NA,legacy,50,14,3000,NA,0,legacy,NA,no,2,1024,2,even,NA,NA,0,0,C:\Users\pbeli\Documents\GitHub\OMM,legacy,608040128,NA,1,0,NA,legacy,608040128,0,-16,608040129,0,3.3.10,Lentiform Loewenfeld,NA,NA,608040128,3000,yes,NA,NA,0,608040129,3000,NA,608040128,NA,0,NA,NA,NA,NA,608042130,0,0,NA,NA,0,yes,None,3000
165,15,4,finished,099550000003505539,1,0,no,experiment,OMM Background Task,1024,Module4,3000,768,114,0,C:\Users\covop\AppData\Local\Temp\omm.log,0,NA,NA,Wed Nov 17 11:04:38 2021,None,no,18,2021-11-17 10:04:43,black,undefined,white,no,165,48000,0,NA,relative,0,15,Simple touch then sound&reward - via server,mono,no,no,omm,434636464,0,0,NA,legacy,legacy,NA,legacy,50,15,3000,NA,0,legacy,NA,no,2,1024,2,even,NA,NA,0,0,C:\Users\pbeli\Documents\GitHub\OMM,legacy,434631461,NA,1,0,NA,legacy,434631461,0,-16,434631463,0,3.3.10,Lentiform Loewenfeld,NA,NA,434631461,3000,yes,NA,NA,0,434631463,3000,NA,434631461,NA,0,NA,NA,NA,NA,434633464,0,0,NA,NA,0,yes,None,3000
165,15,4,finished,099550000003293892,1,0,no,experiment,OMM Background Task,1024,Module2,3000,768,114,0,C:\Users\covop\AppData\Local\Temp\omm.log,0,NA,NA,Fri Nov 19 11:16:10 2021,None,no,18,2021-11-19 10:16:15,black,undefined,white,no,165,48000,0,NA,relative,0,15,Simple touch then sound&reward - via server,mono,no,no,omm,337167846,0,0,NA,legacy,legacy,NA,legacy,50,15,3000,NA,0,legacy,NA,no,2,1024,2,even,NA,NA,0,0,C:\Users\pbeli\Documents\GitHub\OMM,legacy,337162844,NA,1,0,NA,legacy,337162844,0,-16,337162845,0,3.3.10,Lentiform Loewenfeld,NA,NA,337162844,3000,yes,NA,NA,0,337162845,3000,NA,337162844,NA,0,NA,NA,NA,NA,337164846,0,0,NA,NA,0,yes,None,3000
165,15,4,finished,099550000003293903,1,0,no,experiment,OMM Background Task,1024,Module3,3000,768,114,0,C:\Users\covop\AppData\Local\Temp\omm.log,0,NA,NA,Thu Nov 18 11:42:28 2021,None,no,18,2021-11-18 10:42:33,black,undefined,white,no,165,48000,0,NA,relative,0,15,Simple touch then sound&reward - via server,mono,no,no,omm,89551895,0,0,NA,legacy,legacy,NA,legacy,50,15,3000,NA,0,legacy,NA,no,2,1024,2,even,NA,NA,0,0,C:\Users\pbeli\Documents\GitHub\OMM,legacy,89546891,NA,1,0,NA,legacy,89546892,0,-16,89546893,0,3.3.10,Lentiform Loewenfeld,NA,NA,89546892,3000,yes,NA,NA,0,89546893,3000,NA,89546892,NA,0,NA,NA,NA,NA,89548895,0,0,NA,NA,0,yes,None,3000
165,15,4,finished,099550000003293903,2,0,no,experiment,OMM Background Task,1024,Module3,1721,768,114,0,C:\Users\covop\AppData\Local\Temp\omm.log,0,228,277,Thu Nov 18 11:42:28 2021,15,no,18,2021-11-18 10:42:39,black,undefined,white,no,165,48000,0,NA,relative,0,15,Simple touch then sound&reward - via server,mono,no,no,omm,89557512,0,0,NA,legacy,legacy,NA,legacy,50,15,1721,NA,0,legacy,NA,no,2,1024,2,even,NA,NA,0,0,C:\Users\pbeli\Documents\GitHub\OMM,legacy,89553788,NA,1,0,NA,legacy,89553788,0,-16,89553789,0,3.3.10,Lentiform Loewenfeld,NA,NA,89553788,1721,yes,NA,NA,0,89553789,1721,NA,89553788,NA,0,NA,NA,NA,NA,89555790,0,0,NA,NA,0,yes,15,1721
166,16,4,finished,099550000003293892,1,0,no,experiment,OMM Background Task,1024,Module2,3000,768,115,0,C:\Users\covop\AppData\Local\Temp\omm.log,0,NA,NA,Fri Nov 19 11:58:44 2021,None,no,18,2021-11-19 10:58:50,black,undefined,white,no,166,48000,0,NA,relative,0,16,Simple touch then sound&reward - via server,mono,no,no,omm,610727471,0,0,NA,legacy,legacy,NA,legacy,50,16,3000,NA,0,legacy,NA,no,2,1024,2,even,NA,NA,0,0,C:\Users\pbeli\Documents\GitHub\OMM,legacy,610722469,NA,1,0,NA,legacy,610722469,0,-16,610722470,0,3.3.10,Lentiform Loewenfeld,NA,NA,610722469,3000,yes,NA,NA,0,610722470,3000,NA,610722469,NA,0,NA,NA,NA,NA,610724471,0,0,NA,NA,0,yes,None,3000
166,16,4,finished,099550000003293903,1,0,no,experiment,OMM Background Task,1024,Module3,3000,768,115,0,C:\Users\covop\AppData\Local\Temp\omm.log,0,NA,NA,Thu Nov 18 13:12:49 2021,None,no,18,2021-11-18 12:12:55,black,undefined,white,no,166,48000,0,NA,relative,0,16,Simple touch then sound&reward - via server,mono,no,no,omm,94973506,0,0,NA,legacy,legacy,NA,legacy,50,16,3000,NA,0,legacy,NA,no,2,1024,2,even,NA,NA,0,0,C:\Users\pbeli\Documents\GitHub\OMM,legacy,94968502,NA,1,0,NA,legacy,94968502,0,-16,94968504,0,3.3.10,Lentiform Loewenfeld,NA,NA,94968503,3000,yes,NA,NA,0,94968504,3000,NA,94968502,NA,0,NA,NA,NA,NA,94970506,0,0,NA,NA,0,yes,None,3000
166,16,4,finished,099550000003293903,2,0,no,experiment,OMM Background Task,1024,Module3,3000,768,115,0,C:\Users\covop\AppData\Local\Temp\omm.log,0,NA,NA,Thu Nov 18 13:12:49 2021,None,no,18,2021-11-18 12:34:54,black,undefined,white,no,166,48000,0,NA,relative,0,16,Simple touch then sound&reward - via server,mono,no,no,omm,96292771,0,0,NA,legacy,legacy,NA,legacy,50,16,3000,NA,0,legacy,NA,no,2,1024,2,even,NA,NA,0,0,C:\Users\pbeli\Documents\GitHub\OMM,legacy,96287768,NA,1,0,NA,legacy,96287768,0,-16,96287769,0,3.3.10,Lentiform Loewenfeld,NA,NA,96287768,3000,yes,NA,NA,0,96287769,3000,NA,96287768,NA,0,NA,NA,NA,NA,96289771,0,0,NA,NA,0,yes,None,3000
166,16,4,finished,099550000003293903,3,0,no,experiment,OMM Background Task,1024,Module3,3000,768,115,0,C:\Users\covop\AppData\Local\Temp\omm.log,0,NA,NA,Thu Nov 18 13:12:49 2021,None,no,18,2021-11-18 12:35:26,black,undefined,white,no,166,48000,0,NA,relative,0,16,Simple touch then sound&reward - via server,mono,no,no,omm,96324345,0,0,NA,legacy,legacy,NA,legacy,50,16,3000,NA,0,legacy,NA,no,2,1024,2,even,NA,NA,0,0,C:\Users\pbeli\Documents\GitHub\OMM,legacy,96319342,NA,1,0,NA,legacy,96319343,0,-16,96319344,0,3.3.10,Lentiform Loewenfeld,NA,NA,96319343,3000,yes,NA,NA,0,96319344,3000,NA,96319343,NA,0,NA,NA,NA,NA,96321345,0,0,NA,NA,0,yes,None,3000
166,16,4,finished,099550000003293903,4,0,no,experiment,OMM Background Task,1024,Module3,3000,768,115,0,C:\Users\covop\AppData\Local\Temp\omm.log,0,NA,NA,Thu Nov 18 13:12:49 2021,None,no,18,2021-11-18 12:42:37,black,undefined,white,no,166,48000,0,NA,relative,0,16,Simple touch then sound&reward - via server,mono,no,no,omm,96755180,0,0,NA,legacy,legacy,NA,legacy,50,16,3000,NA,0,legacy,NA,no,2,1024,2,even,NA,NA,0,0,C:\Users\pbeli\Documents\GitHub\OMM,legacy,96750178,NA,1,0,NA,legacy,96750178,0,-16,96750179,0,3.3.10,Lentiform Loewenfeld,NA,NA,96750178,3000,yes,NA,NA,0,96750179,3000,NA,96750178,NA,0,NA,NA,NA,NA,96752180,0,0,NA,NA,0,yes,None,3000
166,16,4,finished,099550000003293903,5,0,no,experiment,OMM Background Task,1024,Module3,3000,768,115,0,C:\Users\covop\AppData\Local\Temp\omm.log,0,NA,NA,Thu Nov 18 13:12:49 2021,None,no,18,2021-11-18 12:44:00,black,undefined,white,no,166,48000,0,NA,relative,0,16,Simple touch then sound&reward - via server,mono,no,no,omm,96838261,0,0,NA,legacy,legacy,NA,legacy,50,16,3000,NA,0,legacy,NA,no,2,1024,2,even,NA,NA,0,0,C:\Users\pbeli\Documents\GitHub\OMM,legacy,96833258,NA,1,0,NA,legacy,96833258,0,-16,96833259,0,3.3.10,Lentiform Loewenfeld,NA,NA,96833258,3000,yes,NA,NA,0,96833259,3000,NA,96833258,NA,0,NA,NA,NA,NA,96835261,0,0,NA,NA,0,yes,None,3000
166,16,4,finished,099550000003293903,6,0,no,experiment,OMM Background Task,1024,Module3,3000,768,115,0,C:\Users\covop\AppData\Local\Temp\omm.log,0,NA,NA,Thu Nov 18 13:12:49 2021,None,no,18,2021-11-19 10:05:46,black,undefined,white,no,166,48000,0,NA,relative,0,16,Simple touch then sound&reward - via server,mono,no,no,omm,336539566,0,0,NA,legacy,legacy,NA,legacy,50,16,3000,NA,0,legacy,NA,no,2,1024,2,even,NA,NA,0,0,C:\Users\pbeli\Documents\GitHub\OMM,legacy,336534563,NA,1,0,NA,legacy,336534563,0,-16,336534565,0,3.3.10,Lentiform Loewenfeld,NA,NA,336534563,3000,yes,NA,NA,0,336534565,3000,NA,336534563,NA,0,NA,NA,NA,NA,336536566,0,0,NA,NA,0,yes,None,3000
167,17,4,finished,099550000003293903,1,0,no,experiment,OMM Background Task,1024,Module3,3000,768,116,0,C:\Users\covop\AppData\Local\Temp\omm.log,0,NA,NA,Thu Nov 18 11:56:26 2021,None,no,18,2021-11-18 10:56:32,black,undefined,white,no,167,48000,0,NA,relative,0,17,Simple touch then sound&reward - via server,mono,no,no,omm,90390350,0,0,NA,legacy,legacy,NA,legacy,50,17,3000,NA,0,legacy,NA,no,2,1024,2,even,NA,NA,0,0,C:\Users\pbeli\Documents\GitHub\OMM,legacy,90385345,NA,1,0,NA,legacy,90385345,0,-16,90385347,0,3.3.10,Lentiform Loewenfeld,NA,NA,90385345,3000,yes,NA,NA,0,90385347,3000,NA,90385345,NA,0,NA,NA,NA,NA,90387350,0,0,NA,NA,0,yes,None,3000
168,18,4,finished,099550000003293903,1,0,no,experiment,OMM Background Task,1024,Module3,3000,768,117,0,C:\Users\covop\AppData\Local\Temp\omm.log,0,NA,NA,Thu Nov 18 11:49:08 2021,None,no,18,2021-11-18 10:49:13,black,undefined,white,no,168,48000,0,NA,relative,0,18,Simple touch then sound&reward - via server,mono,no,no,omm,89951798,0,0,NA,legacy,legacy,NA,legacy,50,18,3000,NA,0,legacy,NA,no,2,1024,2,even,NA,NA,0,0,C:\Users\pbeli\Documents\GitHub\OMM,legacy,89946795,NA,1,0,NA,legacy,89946795,0,-16,89946796,0,3.3.10,Lentiform Loewenfeld,NA,NA,89946795,3000,yes,NA,NA,0,89946796,3000,NA,89946795,NA,0,NA,NA,NA,NA,89948798,0,0,NA,NA,0,yes,None,3000
168,18,4,finished,099550000003293903,2,0,no,experiment,OMM Background Task,1024,Module3,3001,768,117,0,C:\Users\covop\AppData\Local\Temp\omm.log,0,NA,NA,Thu Nov 18 11:49:08 2021,None,no,18,2021-11-18 12:31:31,black,undefined,white,no,168,48000,0,NA,relative,0,18,Simple touch then sound&reward - via server,mono,no,no,omm,96089535,0,0,NA,legacy,legacy,NA,legacy,50,18,3001,NA,0,legacy,NA,no,2,1024,2,even,NA,NA,0,0,C:\Users\pbeli\Documents\GitHub\OMM,legacy,96084530,NA,1,0,NA,legacy,96084530,0,-16,96084532,0,3.3.10,Lentiform Loewenfeld,NA,NA,96084530,3001,yes,NA,NA,0,96084532,3001,NA,96084530,NA,0,NA,NA,NA,NA,96086534,0,0,NA,NA,0,yes,None,3001
168,18,4,finished,099550000003293878,1,0,no,experiment,OMM Background Task,1024,Module2,3000,768,117,0,C:\Users\covop\AppData\Local\Temp\omm.log,0,NA,NA,Fri Nov 19 11:05:06 2021,None,no,18,2021-11-19 10:05:11,black,undefined,white,no,168,48000,0,NA,relative,0,18,Simple touch then sound&reward - via server,mono,no,no,omm,336504523,0,0,NA,legacy,legacy,NA,legacy,50,18,3000,NA,0,legacy,NA,no,2,1024,2,even,NA,NA,0,0,C:\Users\pbeli\Documents\GitHub\OMM,legacy,336499521,NA,1,0,NA,legacy,336499521,0,-16,336499522,0,3.3.10,Lentiform Loewenfeld,NA,NA,336499521,3000,yes,NA,NA,0,336499522,3000,NA,336499521,NA,0,NA,NA,NA,NA,336501523,0,0,NA,NA,0,yes,None,3000
168,18,4,finished,099550000003293878,2,0,no,experiment,OMM Background Task,1024,Module2,3000,768,117,0,C:\Users\covop\AppData\Local\Temp\omm.log,0,NA,NA,Fri Nov 19 11:05:06 2021,None,no,18,2021-11-19 10:19:28,black,undefined,white,no,168,48000,0,NA,relative,0,18,Simple touch then sound&reward - via server,mono,no,no,omm,608365147,0,0,NA,legacy,legacy,NA,legacy,50,18,3000,NA,0,legacy,NA,no,2,1024,2,even,NA,NA,0,0,C:\Users\pbeli\Documents\GitHub\OMM,legacy,608360145,NA,1,0,NA,legacy,608360145,0,-16,608360146,0,3.3.10,Lentiform Loewenfeld,NA,NA,608360145,3000,yes,NA,NA,0,608360146,3000,NA,608360145,NA,0,NA,NA,NA,NA,608362147,0,0,NA,NA,0,yes,None,3000
169,19,4,finished,099550000003293892,1,0,no,experiment,OMM Background Task,1024,Module2,3000,768,118,0,C:\Users\covop\AppData\Local\Temp\omm.log,0,NA,NA,Fri Nov 19 10:58:43 2021,None,no,18,2021-11-19 09:58:49,black,undefined,white,no,169,48000,0,NA,relative,0,19,Simple touch then sound&reward - via server,mono,no,no,omm,607126350,0,0,NA,legacy,legacy,NA,legacy,50,19,3000,NA,0,legacy,NA,no,2,1024,2,even,NA,NA,0,0,C:\Users\pbeli\Documents\GitHub\OMM,legacy,607121348,NA,1,0,NA,legacy,607121348,0,-16,607121349,0,3.3.10,Lentiform Loewenfeld,NA,NA,607121348,3000,yes,NA,NA,0,607121349,3000,NA,607121348,NA,0,NA,NA,NA,NA,607123350,0,0,NA,NA,0,yes,None,3000
169,19,4,finished,099550000003293903,1,0,no,experiment,OMM Background Task,1024,Module3,3000,768,118,0,C:\Users\covop\AppData\Local\Temp\omm.log,0,NA,NA,Thu Nov 18 13:35:27 2021,None,no,18,2021-11-18 12:35:33,black,undefined,white,no,169,48000,0,NA,relative,0,19,Simple touch then sound&reward - via server,mono,no,no,omm,96331381,0,0,NA,legacy,legacy,NA,legacy,50,19,3000,NA,0,legacy,NA,no,2,1024,2,even,NA,NA,0,0,C:\Users\pbeli\Documents\GitHub\OMM,legacy,96326379,NA,1,0,NA,legacy,96326379,0,-16,96326380,0,3.3.10,Lentiform Loewenfeld,NA,NA,96326379,3000,yes,NA,NA,0,96326380,3000,NA,96326379,NA,0,NA,NA,NA,NA,96328381,0,0,NA,NA,0,yes,None,3000
169,19,4,finished,099550000003293903,2,0,no,experiment,OMM Background Task,1024,Module3,3000,768,118,0,C:\Users\covop\AppData\Local\Temp\omm.log,0,NA,NA,Thu Nov 18 13:35:27 2021,None,no,18,2021-11-18 12:42:55,black,undefined,white,no,169,48000,0,NA,relative,0,19,Simple touch then sound&reward - via server,mono,no,no,omm,96772960,0,0,NA,legacy,legacy,NA,legacy,50,19,3000,NA,0,legacy,NA,no,2,1024,2,even,NA,NA,0,0,C:\Users\pbeli\Documents\GitHub\OMM,legacy,96767956,NA,1,0,NA,legacy,96767956,0,-16,96767958,0,3.3.10,Lentiform Loewenfeld,NA,NA,96767956,3000,yes,NA,NA,0,96767958,3000,NA,96767956,NA,0,NA,NA,NA,NA,96769960,0,0,NA,NA,0,yes,None,3000
169,19,4,finished,099550000003293878,1,0,no,experiment,OMM Background Task,1024,Module2,3000,768,118,0,C:\Users\covop\AppData\Local\Temp\omm.log,0,NA,NA,Fri Nov 19 10:52:25 2021,None,no,18,2021-11-19 09:52:30,black,undefined,white,no,169,48000,0,NA,relative,0,19,Simple touch then sound&reward - via server,mono,no,no,omm,335743153,0,0,NA,legacy,legacy,NA,legacy,50,19,3000,NA,0,legacy,NA,no,2,1024,2,even,NA,NA,0,0,C:\Users\pbeli\Documents\GitHub\OMM,legacy,335738150,NA,1,0,NA,legacy,335738150,0,-16,335738152,0,3.3.10,Lentiform Loewenfeld,NA,NA,335738150,3000,yes,NA,NA,0,335738152,3000,NA,335738150,NA,0,NA,NA,NA,NA,335740153,0,0,NA,NA,0,yes,None,3000
169,19,4,finished,099550000003293878,2,0,no,experiment,OMM Background Task,1024,Module2,3000,768,118,0,C:\Users\covop\AppData\Local\Temp\omm.log,0,NA,NA,Fri Nov 19 10:52:25 2021,None,no,18,2021-11-19 10:17:17,black,undefined,white,no,169,48000,0,NA,relative,0,19,Simple touch then sound&reward - via server,mono,no,no,omm,608190857,0,0,NA,legacy,legacy,NA,legacy,50,19,3000,NA,0,legacy,NA,no,2,1024,2,even,NA,NA,0,0,C:\Users\pbeli\Documents\GitHub\OMM,legacy,608185855,NA,1,0,NA,legacy,608185855,0,-16,608185856,0,3.3.10,Lentiform Loewenfeld,NA,NA,608185855,3000,yes,NA,NA,0,608185856,3000,NA,608185855,NA,0,NA,NA,NA,NA,608187857,0,0,NA,NA,0,yes,None,3000
170,20,4,finished,099550000003293878,1,0,no,experiment,OMM Background Task,1024,Module2,3000,768,119,0,C:\Users\covop\AppData\Local\Temp\omm.log,0,NA,NA,Fri Nov 19 10:52:32 2021,None,no,18,2021-11-19 09:52:37,black,undefined,white,no,170,48000,0,NA,relative,0,20,Simple touch then sound&reward - via server,mono,no,no,omm,335750205,0,0,NA,legacy,legacy,NA,legacy,50,20,3000,NA,0,legacy,NA,no,2,1024,2,even,NA,NA,0,0,C:\Users\pbeli\Documents\GitHub\OMM,legacy,335745202,NA,1,0,NA,legacy,335745202,0,-16,335745204,0,3.3.10,Lentiform Loewenfeld,NA,NA,335745202,3000,yes,NA,NA,0,335745204,3000,NA,335745202,NA,0,NA,NA,NA,NA,335747205,0,0,NA,NA,0,yes,None,3000
170,20,4,finished,099550000003293892,1,0,no,experiment,OMM Background Task,1024,Module2,3000,768,119,0,C:\Users\covop\AppData\Local\Temp\omm.log,0,NA,NA,Fri Nov 19 10:58:36 2021,None,no,18,2021-11-19 09:58:43,black,undefined,white,no,170,48000,0,NA,relative,0,20,Simple touch then sound&reward - via server,mono,no,no,omm,607119938,0,0,NA,legacy,legacy,NA,legacy,50,20,3000,NA,0,legacy,NA,no,2,1024,2,even,NA,NA,0,0,C:\Users\pbeli\Documents\GitHub\OMM,legacy,607114935,NA,1,0,NA,legacy,607114935,0,-16,607114937,0,3.3.10,Lentiform Loewenfeld,NA,NA,607114935,3000,yes,NA,NA,0,607114937,3000,NA,607114935,NA,0,NA,NA,NA,NA,607116938,0,0,NA,NA,0,yes,None,3000
170,20,4,finished,099550000003293892,2,0,no,experiment,OMM Background Task,1024,Module2,3000,768,119,0,C:\Users\covop\AppData\Local\Temp\omm.log,0,NA,NA,Fri Nov 19 10:58:36 2021,None,no,18,2021-11-19 10:10:14,black,undefined,white,no,170,48000,0,NA,relative,0,20,Simple touch then sound&reward - via server,mono,no,no,omm,607768628,0,0,NA,legacy,legacy,NA,legacy,50,20,3000,NA,0,legacy,NA,no,2,1024,2,even,NA,NA,0,0,C:\Users\pbeli\Documents\GitHub\OMM,legacy,607763626,NA,1,0,NA,legacy,607763626,0,-16,607763627,0,3.3.10,Lentiform Loewenfeld,NA,NA,607763626,3000,yes,NA,NA,0,607763627,3000,NA,607763626,NA,0,NA,NA,NA,NA,607765628,0,0,NA,NA,0,yes,None,3000
170,20,4,finished,099550000003293903,1,0,no,experiment,OMM Background Task,1024,Module3,3000,768,119,0,C:\Users\covop\AppData\Local\Temp\omm.log,0,NA,NA,Thu Nov 18 10:55:48 2021,None,no,18,2021-11-18 09:55:54,black,undefined,white,no,170,48000,0,NA,relative,0,20,Simple touch then sound&reward - via server,mono,no,no,omm,86752485,0,0,NA,legacy,legacy,NA,legacy,50,20,3000,NA,0,legacy,NA,no,2,1024,2,even,NA,NA,0,0,C:\Users\pbeli\Documents\GitHub\OMM,legacy,86747481,NA,1,0,NA,legacy,86747481,0,-16,86747483,0,3.3.10,Lentiform Loewenfeld,NA,NA,86747481,3000,yes,NA,NA,0,86747483,3000,NA,86747481,NA,0,NA,NA,NA,NA,86749485,0,0,NA,NA,0,yes,None,3000
170,20,4,finished,099550000003293903,2,0,no,experiment,OMM Background Task,1024,Module3,3000,768,119,0,C:\Users\covop\AppData\Local\Temp\omm.log,0,NA,NA,Thu Nov 18 10:55:48 2021,None,no,18,2021-11-18 10:44:49,black,undefined,white,no,170,48000,0,NA,relative,0,20,Simple touch then sound&reward - via server,mono,no,no,omm,89687848,0,0,NA,legacy,legacy,NA,legacy,50,20,3000,NA,0,legacy,NA,no,2,1024,2,even,NA,NA,0,0,C:\Users\pbeli\Documents\GitHub\OMM,legacy,89682844,NA,1,0,NA,legacy,89682844,0,-16,89682846,0,3.3.10,Lentiform Loewenfeld,NA,NA,89682844,3000,yes,NA,NA,0,89682846,3000,NA,89682844,NA,0,NA,NA,NA,NA,89684848,0,0,NA,NA,0,yes,None,3000
170,20,4,finished,099550000003293903,3,0,no,experiment,OMM Background Task,1024,Module3,3000,768,119,0,C:\Users\covop\AppData\Local\Temp\omm.log,0,NA,NA,Thu Nov 18 10:55:48 2021,None,no,18,2021-11-18 12:10:12,black,undefined,white,no,170,48000,0,NA,relative,0,20,Simple touch then sound&reward - via server,mono,no,no,omm,94810645,0,0,NA,legacy,legacy,NA,legacy,50,20,3000,NA,0,legacy,NA,no,2,1024,2,even,NA,NA,0,0,C:\Users\pbeli\Documents\GitHub\OMM,legacy,94805641,NA,1,0,NA,legacy,94805641,0,-16,94805643,0,3.3.10,Lentiform Loewenfeld,NA,NA,94805641,3000,yes,NA,NA,0,94805643,3000,NA,94805641,NA,0,NA,NA,NA,NA,94807645,0,0,NA,NA,0,yes,None,3000
170,20,4,finished,099550000003293903,4,0,no,experiment,OMM Background Task,1024,Module3,3001,768,119,0,C:\Users\covop\AppData\Local\Temp\omm.log,0,NA,NA,Thu Nov 18 10:55:48 2021,None,no,18,2021-11-18 12:10:22,black,undefined,white,no,170,48000,0,NA,relative,0,20,Simple touch then sound&reward - via server,mono,no,no,omm,94820861,0,0,NA,legacy,legacy,NA,legacy,50,20,3001,NA,0,legacy,NA,no,2,1024,2,even,NA,NA,0,0,C:\Users\pbeli\Documents\GitHub\OMM,legacy,94815857,NA,1,0,NA,legacy,94815857,0,-16,94815859,0,3.3.10,Lentiform Loewenfeld,NA,NA,94815857,3001,yes,NA,NA,0,94815859,3001,NA,94815857,NA,0,NA,NA,NA,NA,94817860,0,0,NA,NA,0,yes,None,3001
170,20,4,finished,099550000003293903,5,0,no,experiment,OMM Background Task,1024,Module3,3000,768,119,0,C:\Users\covop\AppData\Local\Temp\omm.log,0,NA,NA,Thu Nov 18 10:55:48 2021,None,no,18,2021-11-18 12:13:15,black,undefined,white,no,170,48000,0,NA,relative,0,20,Simple touch then sound&reward - via server,mono,no,no,omm,94993379,0,0,NA,legacy,legacy,NA,legacy,50,20,3000,NA,0,legacy,NA,no,2,1024,2,even,NA,NA,0,0,C:\Users\pbeli\Documents\GitHub\OMM,legacy,94988376,NA,1,0,NA,legacy,94988376,0,-16,94988377,0,3.3.10,Lentiform Loewenfeld,NA,NA,94988376,3000,yes,NA,NA,0,94988377,3000,NA,94988376,NA,0,NA,NA,NA,NA,94990379,0,0,NA,NA,0,yes,None,3000
170,20,4,finished,099550000003293903,6,0,no,experiment,OMM Background Task,1024,Module3,3001,768,119,0,C:\Users\covop\AppData\Local\Temp\omm.log,0,NA,NA,Thu Nov 18 10:55:48 2021,None,no,18,2021-11-18 12:33:46,black,undefined,white,no,170,48000,0,NA,relative,0,20,Simple touch then sound&reward - via server,mono,no,no,omm,96224095,0,0,NA,legacy,legacy,NA,legacy,50,20,3001,NA,0,legacy,NA,no,2,1024,2,even,NA,NA,0,0,C:\Users\pbeli\Documents\GitHub\OMM,legacy,96219092,NA,1,0,NA,legacy,96219092,0,-16,96219093,0,3.3.10,Lentiform Loewenfeld,NA,NA,96219092,3001,yes,NA,NA,0,96219093,3001,NA,96219092,NA,0,NA,NA,NA,NA,96221094,0,0,NA,NA,0,yes,None,3001
170,20,4,finished,099550000003293903,7,0,no,experiment,OMM Background Task,1024,Module3,3000,768,119,0,C:\Users\covop\AppData\Local\Temp\omm.log,0,NA,NA,Thu Nov 18 10:55:48 2021,None,no,18,2021-11-18 12:43:38,black,undefined,white,no,170,48000,0,NA,relative,0,20,Simple touch then sound&reward - via server,mono,no,no,omm,96816885,0,0,NA,legacy,legacy,NA,legacy,50,20,3000,NA,0,legacy,NA,no,2,1024,2,even,NA,NA,0,0,C:\Users\pbeli\Documents\GitHub\OMM,legacy,96811881,NA,1,0,NA,legacy,96811882,0,-16,96811883,0,3.3.10,Lentiform Loewenfeld,NA,NA,96811882,3000,yes,NA,NA,0,96811883,3000,NA,96811882,NA,0,NA,NA,NA,NA,96813885,0,0,NA,NA,0,yes,None,3000
171,21,4,finished,099550000003293878,1,0,no,experiment,OMM Background Task,1024,Module4,3000,768,120,0,C:\Users\covop\AppData\Local\Temp\omm.log,0,NA,NA,Fri Nov 19 11:00:12 2021,None,no,18,2021-11-19 10:00:18,black,undefined,white,no,171,48000,0,NA,relative,0,21,Simple touch then sound&reward - via server,mono,no,no,omm,607172480,0,0,NA,legacy,legacy,NA,legacy,50,21,3000,NA,0,legacy,NA,no,2,1024,2,even,NA,NA,0,0,C:\Users\pbeli\Documents\GitHub\OMM,legacy,607167478,NA,1,0,NA,legacy,607167478,0,-16,607167479,0,3.3.10,Lentiform Loewenfeld,NA,NA,607167478,3000,yes,NA,NA,0,607167479,3000,NA,607167478,NA,0,NA,NA,NA,NA,607169480,0,0,NA,NA,0,yes,None,3000
171,21,4,finished,099550000003293892,1,0,no,experiment,OMM Background Task,1024,Module2,3000,768,120,0,C:\Users\covop\AppData\Local\Temp\omm.log,0,NA,NA,Fri Nov 19 10:50:59 2021,None,no,18,2021-11-19 09:51:04,black,undefined,white,no,171,48000,0,NA,relative,0,21,Simple touch then sound&reward - via server,mono,no,no,omm,335657364,0,0,NA,legacy,legacy,NA,legacy,50,21,3000,NA,0,legacy,NA,no,2,1024,2,even,NA,NA,0,0,C:\Users\pbeli\Documents\GitHub\OMM,legacy,335652361,NA,1,0,NA,legacy,335652361,0,-16,335652363,0,3.3.10,Lentiform Loewenfeld,NA,NA,335652361,3000,yes,NA,NA,0,335652363,3000,NA,335652361,NA,0,NA,NA,NA,NA,335654364,0,0,NA,NA,0,yes,None,3000
171,21,4,finished,099550000003293892,2,0,no,experiment,OMM Background Task,1024,Module2,3000,768,120,0,C:\Users\covop\AppData\Local\Temp\omm.log,0,NA,NA,Fri Nov 19 10:50:59 2021,None,no,18,2021-11-19 09:58:10,black,undefined,white,no,171,48000,0,NA,relative,0,21,Simple touch then sound&reward - via server,mono,no,no,omm,607087343,0,0,NA,legacy,legacy,NA,legacy,50,21,3000,NA,0,legacy,NA,no,2,1024,2,even,NA,NA,0,0,C:\Users\pbeli\Documents\GitHub\OMM,legacy,607082341,NA,1,0,NA,legacy,607082341,0,-16,607082342,0,3.3.10,Lentiform Loewenfeld,NA,NA,607082341,3000,yes,NA,NA,0,607082342,3000,NA,607082341,NA,0,NA,NA,NA,NA,607084343,0,0,NA,NA,0,yes,None,3000
171,21,4,finished,099550000003293903,1,0,no,experiment,OMM Background Task,1024,Module3,3001,768,120,0,C:\Users\covop\AppData\Local\Temp\omm.log,0,NA,NA,Thu Nov 18 11:44:37 2021,None,no,18,2021-11-18 10:44:43,black,undefined,white,no,171,48000,0,NA,relative,0,21,Simple touch then sound&reward - via server,mono,no,no,omm,89681016,0,0,NA,legacy,legacy,NA,legacy,50,21,3001,NA,0,legacy,NA,no,2,1024,2,even,NA,NA,0,0,C:\Users\pbeli\Documents\GitHub\OMM,legacy,89676013,NA,1,0,NA,legacy,89676013,0,-16,89676014,0,3.3.10,Lentiform Loewenfeld,NA,NA,89676013,3001,yes,NA,NA,0,89676014,3001,NA,89676013,NA,0,NA,NA,NA,NA,89678015,0,0,NA,NA,0,yes,None,3001
171,21,4,finished,099550000003293903,2,0,no,experiment,OMM Background Task,1024,Module3,3000,768,120,0,C:\Users\covop\AppData\Local\Temp\omm.log,0,NA,NA,Thu Nov 18 11:44:37 2021,None,no,18,2021-11-18 10:56:06,black,undefined,white,no,171,48000,0,NA,relative,0,21,Simple touch then sound&reward - via server,mono,no,no,omm,90363920,0,0,NA,legacy,legacy,NA,legacy,50,21,3000,NA,0,legacy,NA,no,2,1024,2,even,NA,NA,0,0,C:\Users\pbeli\Documents\GitHub\OMM,legacy,90358918,NA,1,0,NA,legacy,90358918,0,-16,90358919,0,3.3.10,Lentiform Loewenfeld,NA,NA,90358918,3000,yes,NA,NA,0,90358919,3000,NA,90358918,NA,0,NA,NA,NA,NA,90360920,0,0,NA,NA,0,yes,None,3000
171,21,4,finished,099550000003293903,3,0,no,experiment,OMM Background Task,1024,Module3,3000,768,120,0,C:\Users\covop\AppData\Local\Temp\omm.log,0,NA,NA,Thu Nov 18 11:44:37 2021,None,no,18,2021-11-18 12:43:32,black,undefined,white,no,171,48000,0,NA,relative,0,21,Simple touch then sound&reward - via server,mono,no,no,omm,96809991,0,0,NA,legacy,legacy,NA,legacy,50,21,3000,NA,0,legacy,NA,no,2,1024,2,even,NA,NA,0,0,C:\Users\pbeli\Documents\GitHub\OMM,legacy,96804988,NA,1,0,NA,legacy,96804989,0,-16,96804990,0,3.3.10,Lentiform Loewenfeld,NA,NA,96804989,3000,yes,NA,NA,0,96804990,3000,NA,96804989,NA,0,NA,NA,NA,NA,96806991,0,0,NA,NA,0,yes,None,3000
171,21,4,finished,099550000003293903,4,0,no,experiment,OMM Background Task,1024,Module3,3000,768,120,0,C:\Users\covop\AppData\Local\Temp\omm.log,0,NA,NA,Thu Nov 18 11:44:37 2021,None,no,18,2021-11-18 12:43:52,black,undefined,white,no,171,48000,0,NA,relative,0,21,Simple touch then sound&reward - via server,mono,no,no,omm,96830153,0,0,NA,legacy,legacy,NA,legacy,50,21,3000,NA,0,legacy,NA,no,2,1024,2,even,NA,NA,0,0,C:\Users\pbeli\Documents\GitHub\OMM,legacy,96825150,NA,1,0,NA,legacy,96825150,0,-16,96825151,0,3.3.10,Lentiform Loewenfeld,NA,NA,96825150,3000,yes,NA,NA,0,96825151,3000,NA,96825150,NA,0,NA,NA,NA,NA,96827153,0,0,NA,NA,0,yes,None,3000
172,22,4,finished,099550000003293892,1,0,no,experiment,OMM Background Task,1024,Module2,3000,768,121,0,C:\Users\covop\AppData\Local\Temp\omm.log,0,NA,NA,Fri Nov 19 10:51:08 2021,None,no,18,2021-11-19 09:51:13,black,undefined,white,no,172,48000,0,NA,relative,0,22,Simple touch then sound&reward - via server,mono,no,no,omm,335665835,0,0,NA,legacy,legacy,NA,legacy,50,22,3000,NA,0,legacy,NA,no,2,1024,2,even,NA,NA,0,0,C:\Users\pbeli\Documents\GitHub\OMM,legacy,335660833,NA,1,0,NA,legacy,335660833,0,-16,335660834,0,3.3.10,Lentiform Loewenfeld,NA,NA,335660833,3000,yes,NA,NA,0,335660835,3000,NA,335660833,NA,0,NA,NA,NA,NA,335662835,0,0,NA,NA,0,yes,None,3000
172,22,4,finished,099550000003293892,2,0,no,experiment,OMM Background Task,1024,Module2,3000,768,121,0,C:\Users\covop\AppData\Local\Temp\omm.log,0,NA,NA,Fri Nov 19 10:51:08 2021,None,no,18,2021-11-19 10:05:16,black,undefined,white,no,172,48000,0,NA,relative,0,22,Simple touch then sound&reward - via server,mono,no,no,omm,173714714,0,0,NA,legacy,legacy,NA,legacy,50,22,3000,NA,0,legacy,NA,no,2,1024,2,even,NA,NA,0,0,C:\Users\pbeli\Documents\GitHub\OMM,legacy,173709712,NA,1,0,NA,legacy,173709712,0,-16,173709713,0,3.3.10,Lentiform Loewenfeld,NA,NA,173709712,3000,yes,NA,NA,0,173709713,3000,NA,173709712,NA,0,NA,NA,NA,NA,173711714,0,0,NA,NA,0,yes,None,3000
172,22,4,finished,099550000003293903,1,0,no,experiment,OMM Background Task,1024,Module3,2281,768,121,0,C:\Users\covop\AppData\Local\Temp\omm.log,0,-231,339,Thu Nov 18 11:49:15 2021,14,no,18,2021-11-18 10:49:20,black,undefined,white,no,172,48000,0,NA,relative,0,22,Simple touch then sound&reward - via server,mono,no,no,omm,89958393,0,0,NA,legacy,legacy,NA,legacy,50,22,2281,NA,0,legacy,NA,no,2,1024,2,even,NA,NA,0,0,C:\Users\pbeli\Documents\GitHub\OMM,legacy,89954106,NA,1,0,NA,legacy,89954107,0,-16,89954108,0,3.3.10,Lentiform Loewenfeld,NA,NA,89954107,2281,yes,NA,NA,0,89954108,2281,NA,89954107,NA,0,NA,NA,NA,NA,89956110,0,0,NA,NA,0,yes,14,2281
172,22,4,finished,099550000003293903,2,0,no,experiment,OMM Background Task,1024,Module3,3000,768,121,0,C:\Users\covop\AppData\Local\Temp\omm.log,0,NA,NA,Thu Nov 18 11:49:15 2021,None,no,18,2021-11-18 10:57:16,black,undefined,white,no,172,48000,0,NA,relative,0,22,Simple touch then sound&reward - via server,mono,no,no,omm,90433926,0,0,NA,legacy,legacy,NA,legacy,50,22,3000,NA,0,legacy,NA,no,2,1024,2,even,NA,NA,0,0,C:\Users\pbeli\Documents\GitHub\OMM,legacy,90428923,NA,1,0,NA,legacy,90428924,0,-16,90428925,0,3.3.10,Lentiform Loewenfeld,NA,NA,90428924,3000,yes,NA,NA,0,90428925,3000,NA,90428924,NA,0,NA,NA,NA,NA,90430926,0,0,NA,NA,0,yes,None,3000
172,22,4,finished,099550000003293903,3,0,no,experiment,OMM Background Task,1024,Module3,3001,768,121,0,C:\Users\covop\AppData\Local\Temp\omm.log,0,NA,NA,Thu Nov 18 11:49:15 2021,None,no,18,2021-11-18 12:10:55,black,undefined,white,no,172,48000,0,NA,relative,0,22,Simple touch then sound&reward - via server,mono,no,no,omm,94853715,0,0,NA,legacy,legacy,NA,legacy,50,22,3001,NA,0,legacy,NA,no,2,1024,2,even,NA,NA,0,0,C:\Users\pbeli\Documents\GitHub\OMM,legacy,94848711,NA,1,0,NA,legacy,94848712,0,-16,94848713,0,3.3.10,Lentiform Loewenfeld,NA,NA,94848712,3001,yes,NA,NA,0,94848713,3001,NA,94848712,NA,0,NA,NA,NA,NA,94850714,0,0,NA,NA,0,yes,None,3001
173,23,4,finished,099550000003505539,1,0,no,experiment,OMM Background Task,1024,Module4,3000,768,122,0,C:\Users\covop\AppData\Local\Temp\omm.log,0,NA,NA,Wed Nov 17 11:37:08 2021,None,no,18,2021-11-17 10:37:13,black,undefined,white,no,173,48000,0,NA,relative,0,23,Simple touch then sound&reward - via server,mono,no,no,omm,436586141,0,0,NA,legacy,legacy,NA,legacy,50,23,3000,NA,0,legacy,NA,no,2,1024,2,even,NA,NA,0,0,C:\Users\pbeli\Documents\GitHub\OMM,legacy,436581138,NA,1,0,NA,legacy,436581138,0,-16,436581140,0,3.3.10,Lentiform Loewenfeld,NA,NA,436581138,3000,yes,NA,NA,0,436581140,3000,NA,436581138,NA,0,NA,NA,NA,NA,436583141,0,0,NA,NA,0,yes,None,3000
173,23,4,finished,099550000003293878,1,0,no,experiment,OMM Background Task,1024,Module2,3000,768,122,0,C:\Users\covop\AppData\Local\Temp\omm.log,0,NA,NA,Fri Nov 19 10:54:50 2021,None,no,18,2021-11-19 09:54:56,black,undefined,white,no,173,48000,0,NA,relative,0,23,Simple touch then sound&reward - via server,mono,no,no,omm,335888706,0,0,NA,legacy,legacy,NA,legacy,50,23,3000,NA,0,legacy,NA,no,2,1024,2,even,NA,NA,0,0,C:\Users\pbeli\Documents\GitHub\OMM,legacy,335883704,NA,1,0,NA,legacy,335883704,0,-16,335883705,0,3.3.10,Lentiform Loewenfeld,NA,NA,335883704,3000,yes,NA,NA,0,335883705,3000,NA,335883704,NA,0,NA,NA,NA,NA,335885706,0,0,NA,NA,0,yes,None,3000
174,24,4,finished,099550000003293892,1,0,no,experiment,OMM Background Task,1024,Module2,3000,768,123,0,C:\Users\covop\AppData\Local\Temp\omm.log,0,NA,NA,Fri Nov 19 11:13:20 2021,None,no,18,2021-11-19 10:13:26,black,undefined,white,no,174,48000,0,NA,relative,0,24,Simple touch then sound&reward - via server,mono,no,no,omm,608003635,0,0,NA,legacy,legacy,NA,legacy,50,24,3000,NA,0,legacy,NA,no,2,1024,2,even,NA,NA,0,0,C:\Users\pbeli\Documents\GitHub\OMM,legacy,607998633,NA,1,0,NA,legacy,607998633,0,-16,607998634,0,3.3.10,Lentiform Loewenfeld,NA,NA,607998633,3000,yes,NA,NA,0,607998634,3000,NA,607998633,NA,0,NA,NA,NA,NA,608000635,0,0,NA,NA,0,yes,None,3000
174,24,4,finished,099550000003293903,1,0,no,experiment,OMM Background Task,1024,Module3,1874,768,123,0,C:\Users\covop\AppData\Local\Temp\omm.log,0,103,260,Thu Nov 18 11:58:22 2021,15,no,18,2021-11-18 10:58:27,black,undefined,white,no,174,48000,0,NA,relative,0,24,Simple touch then sound&reward - via server,mono,no,no,omm,90505411,0,0,NA,legacy,legacy,NA,legacy,50,24,1874,NA,0,legacy,NA,no,2,1024,2,even,NA,NA,0,0,C:\Users\pbeli\Documents\GitHub\OMM,legacy,90501534,NA,1,0,NA,legacy,90501534,0,-16,90501536,0,3.3.10,Lentiform Loewenfeld,NA,NA,90501534,1874,yes,NA,NA,0,90501536,1874,NA,90501534,NA,0,NA,NA,NA,NA,90503537,0,0,NA,NA,0,yes,15,1874
174,24,4,finished,099550000003293903,2,0,no,experiment,OMM Background Task,1024,Module3,1668,768,123,0,C:\Users\covop\AppData\Local\Temp\omm.log,0,146,299,Thu Nov 18 11:58:22 2021,15,no,18,2021-11-18 12:25:17,black,undefined,white,no,174,48000,0,NA,relative,0,24,Simple touch then sound&reward - via server,mono,no,no,omm,95715131,0,0,NA,legacy,legacy,NA,legacy,50,24,1668,NA,0,legacy,NA,no,2,1024,2,even,NA,NA,0,0,C:\Users\pbeli\Documents\GitHub\OMM,legacy,95711458,NA,1,0,NA,legacy,95711459,0,-16,95711460,0,3.3.10,Lentiform Loewenfeld,NA,NA,95711459,1668,yes,NA,NA,0,95711460,1668,NA,95711459,NA,0,NA,NA,NA,NA,95713461,0,0,NA,NA,0,yes,15,1668
175,25,4,finished,099550000003293892,1,0,no,experiment,OMM Background Task,1024,Module3,3000,768,124,0,C:\Users\covop\AppData\Local\Temp\omm.log,0,NA,NA,Fri Nov 19 11:06:53 2021,None,no,18,2021-11-19 10:06:59,black,undefined,white,no,175,48000,0,NA,relative,0,25,Simple touch then sound&reward - via server,mono,no,no,omm,173818145,0,0,NA,legacy,legacy,NA,legacy,50,25,3000,NA,0,legacy,NA,no,2,1024,2,even,NA,NA,0,0,C:\Users\pbeli\Documents\GitHub\OMM,legacy,173813142,NA,1,0,NA,legacy,173813143,0,-16,173813144,0,3.3.10,Lentiform Loewenfeld,NA,NA,173813143,3000,yes,NA,NA,0,173813144,3000,NA,173813143,NA,0,NA,NA,NA,NA,173815145,0,0,NA,NA,0,yes,None,3000
175,25,4,finished,099550000003293892,2,0,no,experiment,OMM Background Task,1024,Module3,3000,768,124,0,C:\Users\covop\AppData\Local\Temp\omm.log,0,NA,NA,Fri Nov 19 11:06:53 2021,None,no,18,2021-11-19 10:07:39,black,undefined,white,no,175,48000,0,NA,relative,0,25,Simple touch then sound&reward - via server,mono,no,no,omm,607656526,0,0,NA,legacy,legacy,NA,legacy,50,25,3000,NA,0,legacy,NA,no,2,1024,2,even,NA,NA,0,0,C:\Users\pbeli\Documents\GitHub\OMM,legacy,607651523,NA,1,0,NA,legacy,607651523,0,-16,607651525,0,3.3.10,Lentiform Loewenfeld,NA,NA,607651523,3000,yes,NA,NA,0,607651525,3000,NA,607651523,NA,0,NA,NA,NA,NA,607653526,0,0,NA,NA,0,yes,None,3000
175,25,4,finished,099550000003293892,3,0,no,experiment,OMM Background Task,1024,Module3,3000,768,124,0,C:\Users\covop\AppData\Local\Temp\omm.log,0,NA,NA,Fri Nov 19 11:06:53 2021,None,no,18,2021-11-19 10:25:10,black,undefined,white,no,175,48000,0,NA,relative,0,25,Simple touch then sound&reward - via server,mono,no,no,omm,608664454,0,0,NA,legacy,legacy,NA,legacy,50,25,3000,NA,0,legacy,NA,no,2,1024,2,even,NA,NA,0,0,C:\Users\pbeli\Documents\GitHub\OMM,legacy,608659452,NA,1,0,NA,legacy,608659452,0,-16,608659454,0,3.3.10,Lentiform Loewenfeld,NA,NA,608659452,3000,yes,NA,NA,0,608659454,3000,NA,608659452,NA,0,NA,NA,NA,NA,608661454,0,0,NA,NA,0,yes,None,3000
175,25,4,finished,099550000003293903,1,0,no,experiment,OMM Background Task,1024,Module3,2836,768,124,0,C:\Users\covop\AppData\Local\Temp\omm.log,0,-330,149,Thu Nov 18 13:12:42 2021,9,no,18,2021-11-18 12:12:48,black,undefined,white,no,175,48000,0,NA,relative,0,25,Simple touch then sound&reward - via server,mono,no,no,omm,94966866,0,0,NA,legacy,legacy,NA,legacy,50,25,2836,NA,0,legacy,NA,no,2,1024,2,even,NA,NA,0,0,C:\Users\pbeli\Documents\GitHub\OMM,legacy,94962026,NA,1,0,NA,legacy,94962027,0,-16,94962028,0,3.3.10,Lentiform Loewenfeld,NA,NA,94962027,2836,yes,NA,NA,0,94962028,2836,NA,94962027,NA,0,NA,NA,NA,NA,94964029,0,0,NA,NA,0,yes,9,2836
175,25,4,finished,099550000003293903,2,0,no,experiment,OMM Background Task,1024,Module3,3000,768,124,0,C:\Users\covop\AppData\Local\Temp\omm.log,0,NA,NA,Thu Nov 18 13:12:42 2021,None,no,18,2021-11-18 12:31:05,black,undefined,white,no,175,48000,0,NA,relative,0,25,Simple touch then sound&reward - via server,mono,no,no,omm,96063047,0,0,NA,legacy,legacy,NA,legacy,50,25,3000,NA,0,legacy,NA,no,2,1024,2,even,NA,NA,0,0,C:\Users\pbeli\Documents\GitHub\OMM,legacy,96058044,NA,1,0,NA,legacy,96058044,0,-16,96058046,0,3.3.10,Lentiform Loewenfeld,NA,NA,96058044,3000,yes,NA,NA,0,96058046,3000,NA,96058044,NA,0,NA,NA,NA,NA,96060047,0,0,NA,NA,0,yes,None,3000
175,25,4,finished,099550000003293903,3,0,no,experiment,OMM Background Task,1024,Module3,3000,768,124,0,C:\Users\covop\AppData\Local\Temp\omm.log,0,NA,NA,Thu Nov 18 13:12:42 2021,None,no,18,2021-11-18 12:31:47,black,undefined,white,no,175,48000,0,NA,relative,0,25,Simple touch then sound&reward - via server,mono,no,no,omm,96105524,0,0,NA,legacy,legacy,NA,legacy,50,25,3000,NA,0,legacy,NA,no,2,1024,2,even,NA,NA,0,0,C:\Users\pbeli\Documents\GitHub\OMM,legacy,96100521,NA,1,0,NA,legacy,96100521,0,-16,96100523,0,3.3.10,Lentiform Loewenfeld,NA,NA,96100521,3000,yes,NA,NA,0,96100523,3000,NA,96100521,NA,0,NA,NA,NA,NA,96102524,0,0,NA,NA,0,yes,None,3000
175,25,4,finished,099550000003293903,4,0,no,experiment,OMM Background Task,1024,Module3,3000,768,124,0,C:\Users\covop\AppData\Local\Temp\omm.log,0,NA,NA,Thu Nov 18 13:12:42 2021,None,no,18,2021-11-18 12:32:30,black,undefined,white,no,175,48000,0,NA,relative,0,25,Simple touch then sound&reward - via server,mono,no,no,omm,96148511,0,0,NA,legacy,legacy,NA,legacy,50,25,3000,NA,0,legacy,NA,no,2,1024,2,even,NA,NA,0,0,C:\Users\pbeli\Documents\GitHub\OMM,legacy,96143508,NA,1,0,NA,legacy,96143508,0,-16,96143510,0,3.3.10,Lentiform Loewenfeld,NA,NA,96143508,3000,yes,NA,NA,0,96143510,3000,NA,96143508,NA,0,NA,NA,NA,NA,96145511,0,0,NA,NA,0,yes,None,3000
176,26,4,finished,099550000003293892,1,0,no,experiment,OMM Background Task,1024,Module4,3000,768,125,0,C:\Users\covop\AppData\Local\Temp\omm.log,0,NA,NA,Fri Nov 19 11:25:18 2021,None,no,18,2021-11-19 10:25:24,black,undefined,white,no,176,48000,0,NA,relative,0,26,Simple touch then sound&reward - via server,mono,no,no,omm,608678241,0,0,NA,legacy,legacy,NA,legacy,50,26,3000,NA,0,legacy,NA,no,2,1024,2,even,NA,NA,0,0,C:\Users\pbeli\Documents\GitHub\OMM,legacy,608673238,NA,1,0,NA,legacy,608673238,0,-16,608673240,0,3.3.10,Lentiform Loewenfeld,NA,NA,608673238,3000,yes,NA,NA,0,608673240,3000,NA,608673238,NA,0,NA,NA,NA,NA,608675241,0,0,NA,NA,0,yes,None,3000
176,26,4,finished,099550000003293903,1,0,no,experiment,OMM Background Task,1024,Module3,3001,768,125,0,C:\Users\covop\AppData\Local\Temp\omm.log,0,NA,NA,Thu Nov 18 13:11:14 2021,None,no,18,2021-11-18 12:11:20,black,undefined,white,no,176,48000,0,NA,relative,0,26,Simple touch then sound&reward - via server,mono,no,no,omm,94878708,0,0,NA,legacy,legacy,NA,legacy,50,26,3001,NA,0,legacy,NA,no,2,1024,2,even,NA,NA,0,0,C:\Users\pbeli\Documents\GitHub\OMM,legacy,94873705,NA,1,0,NA,legacy,94873705,0,-16,94873706,0,3.3.10,Lentiform Loewenfeld,NA,NA,94873705,3001,yes,NA,NA,0,94873706,3001,NA,94873705,NA,0,NA,NA,NA,NA,94875707,0,0,NA,NA,0,yes,None,3001
176,26,4,finished,099550000003293903,2,0,no,experiment,OMM Background Task,1024,Module3,3001,768,125,0,C:\Users\covop\AppData\Local\Temp\omm.log,0,NA,NA,Thu Nov 18 13:11:14 2021,None,no,18,2021-11-18 12:25:28,black,undefined,white,no,176,48000,0,NA,relative,0,26,Simple touch then sound&reward - via server,mono,no,no,omm,95726107,0,0,NA,legacy,legacy,NA,legacy,50,26,3001,NA,0,legacy,NA,no,2,1024,2,even,NA,NA,0,0,C:\Users\pbeli\Documents\GitHub\OMM,legacy,95721103,NA,1,0,NA,legacy,95721103,0,-16,95721104,0,3.3.10,Lentiform Loewenfeld,NA,NA,95721103,3001,yes,NA,NA,0,95721104,3001,NA,95721103,NA,0,NA,NA,NA,NA,95723106,0,0,NA,NA,0,yes,None,3001
176,26,4,finished,099550000003293903,3,0,no,experiment,OMM Background Task,1024,Module3,3000,768,125,0,C:\Users\covop\AppData\Local\Temp\omm.log,0,NA,NA,Thu Nov 18 13:11:14 2021,None,no,18,2021-11-18 12:30:31,black,undefined,white,no,176,48000,0,NA,relative,0,26,Simple touch then sound&reward - via server,mono,no,no,omm,96029309,0,0,NA,legacy,legacy,NA,legacy,50,26,3000,NA,0,legacy,NA,no,2,1024,2,even,NA,NA,0,0,C:\Users\pbeli\Documents\GitHub\OMM,legacy,96024305,NA,1,0,NA,legacy,96024306,0,-16,96024307,0,3.3.10,Lentiform Loewenfeld,NA,NA,96024306,3000,yes,NA,NA,0,96024307,3000,NA,96024306,NA,0,NA,NA,NA,NA,96026309,0,0,NA,NA,0,yes,None,3000
176,26,4,finished,099550000003293903,4,0,no,experiment,OMM Background Task,1024,Module3,3001,768,125,0,C:\Users\covop\AppData\Local\Temp\omm.log,0,NA,NA,Thu Nov 18 13:11:14 2021,None,no,18,2021-11-18 12:40:38,black,undefined,white,no,176,48000,0,NA,relative,0,26,Simple touch then sound&reward - via server,mono,no,no,omm,96636460,0,0,NA,legacy,legacy,NA,legacy,50,26,3001,NA,0,legacy,NA,no,2,1024,2,even,NA,NA,0,0,C:\Users\pbeli\Documents\GitHub\OMM,legacy,96631456,NA,1,0,NA,legacy,96631456,0,-16,96631457,0,3.3.10,Lentiform Loewenfeld,NA,NA,96631456,3001,yes,NA,NA,0,96631457,3001,NA,96631456,NA,0,NA,NA,NA,NA,96633459,0,0,NA,NA,0,yes,None,3001
176,26,4,finished,099550000003293903,5,0,no,experiment,OMM Background Task,1024,Module3,3000,768,125,0,C:\Users\covop\AppData\Local\Temp\omm.log,0,NA,NA,Thu Nov 18 13:11:14 2021,None,no,18,2021-11-18 12:43:03,black,undefined,white,no,176,48000,0,NA,relative,0,26,Simple touch then sound&reward - via server,mono,no,no,omm,96781436,0,0,NA,legacy,legacy,NA,legacy,50,26,3000,NA,0,legacy,NA,no,2,1024,2,even,NA,NA,0,0,C:\Users\pbeli\Documents\GitHub\OMM,legacy,96776433,NA,1,0,NA,legacy,96776433,0,-16,96776434,0,3.3.10,Lentiform Loewenfeld,NA,NA,96776433,3000,yes,NA,NA,0,96776434,3000,NA,96776433,NA,0,NA,NA,NA,NA,96778436,0,0,NA,NA,0,yes,None,3000
176,26,4,finished,099550000003293903,6,0,no,experiment,OMM Background Task,1024,Module3,3000,768,125,0,C:\Users\covop\AppData\Local\Temp\omm.log,0,NA,NA,Thu Nov 18 13:11:14 2021,None,no,18,2021-11-19 09:52:39,black,undefined,white,no,176,48000,0,NA,relative,0,26,Simple touch then sound&reward - via server,mono,no,no,omm,172958018,0,0,NA,legacy,legacy,NA,legacy,50,26,3000,NA,0,legacy,NA,no,2,1024,2,even,NA,NA,0,0,C:\Users\pbeli\Documents\GitHub\OMM,legacy,172953015,NA,1,0,NA,legacy,172953015,0,-16,172953016,0,3.3.10,Lentiform Loewenfeld,NA,NA,172953015,3000,yes,NA,NA,0,172953017,3000,NA,172953015,NA,0,NA,NA,NA,NA,172955018,0,0,NA,NA,0,yes,None,3000
177,27,4,finished,099550000003293903,1,0,no,experiment,OMM Background Task,1024,Module3,3000,768,126,0,C:\Users\covop\AppData\Local\Temp\omm.log,0,NA,NA,Thu Nov 18 11:49:37 2021,None,no,18,2021-11-18 10:49:43,black,undefined,white,no,177,48000,0,NA,relative,0,27,Simple touch then sound&reward - via server,mono,no,no,omm,89981538,0,0,NA,legacy,legacy,NA,legacy,50,27,3000,NA,0,legacy,NA,no,2,1024,2,even,NA,NA,0,0,C:\Users\pbeli\Documents\GitHub\OMM,legacy,89976533,NA,1,0,NA,legacy,89976533,0,-16,89976536,0,3.3.10,Lentiform Loewenfeld,NA,NA,89976533,3000,yes,NA,NA,0,89976536,3000,NA,89976533,NA,0,NA,NA,NA,NA,89978538,0,0,NA,NA,0,yes,None,3000
177,27,4,finished,099550000003293878,1,0,no,experiment,OMM Background Task,1024,Module2,3000,768,126,0,C:\Users\covop\AppData\Local\Temp\omm.log,0,NA,NA,Fri Nov 19 11:05:34 2021,None,no,18,2021-11-19 10:05:39,black,undefined,white,no,177,48000,0,NA,relative,0,27,Simple touch then sound&reward - via server,mono,no,no,omm,336532068,0,0,NA,legacy,legacy,NA,legacy,50,27,3000,NA,0,legacy,NA,no,2,1024,2,even,NA,NA,0,0,C:\Users\pbeli\Documents\GitHub\OMM,legacy,336527066,NA,1,0,NA,legacy,336527066,0,-16,336527067,0,3.3.10,Lentiform Loewenfeld,NA,NA,336527066,3000,yes,NA,NA,0,336527067,3000,NA,336527066,NA,0,NA,NA,NA,NA,336529068,0,0,NA,NA,0,yes,None,3000
177,27,4,finished,099550000003293892,1,0,no,experiment,OMM Background Task,1024,Module4,3000,768,126,0,C:\Users\covop\AppData\Local\Temp\omm.log,0,NA,NA,Fri Nov 19 11:23:36 2021,None,no,18,2021-11-19 10:23:42,black,undefined,white,no,177,48000,0,NA,relative,0,27,Simple touch then sound&reward - via server,mono,no,no,omm,608576048,0,0,NA,legacy,legacy,NA,legacy,50,27,3000,NA,0,legacy,NA,no,2,1024,2,even,NA,NA,0,0,C:\Users\pbeli\Documents\GitHub\OMM,legacy,608571046,NA,1,0,NA,legacy,608571046,0,-16,608571047,0,3.3.10,Lentiform Loewenfeld,NA,NA,608571046,3000,yes,NA,NA,0,608571047,3000,NA,608571046,NA,0,NA,NA,NA,NA,608573048,0,0,NA,NA,0,yes,None,3000
177,27,4,finished,099550000003293892,2,0,no,experiment,OMM Background Task,1024,Module4,3001,768,126,0,C:\Users\covop\AppData\Local\Temp\omm.log,0,NA,NA,Fri Nov 19 11:23:36 2021,None,no,18,2021-11-19 11:03:13,black,undefined,white,no,177,48000,0,NA,relative,0,27,Simple touch then sound&reward - via server,mono,no,no,omm,177191926,0,0,NA,legacy,legacy,NA,legacy,50,27,3001,NA,0,legacy,NA,no,2,1024,2,even,NA,NA,0,0,C:\Users\pbeli\Documents\GitHub\OMM,legacy,177186923,NA,1,0,NA,legacy,177186923,0,-16,177186924,0,3.3.10,Lentiform Loewenfeld,NA,NA,177186923,3001,yes,NA,NA,0,177186924,3001,NA,177186923,NA,0,NA,NA,NA,NA,177188925,0,0,NA,NA,0,yes,None,3001
178,28,4,finished,099550000003293892,1,0,no,experiment,OMM Background Task,1024,Module4,3000,768,127,0,C:\Users\covop\AppData\Local\Temp\omm.log,0,NA,NA,Fri Nov 19 11:23:03 2021,None,no,18,2021-11-19 10:23:09,black,undefined,white,no,178,48000,0,NA,relative,0,28,Simple touch then sound&reward - via server,mono,no,no,omm,608542705,0,0,NA,legacy,legacy,NA,legacy,50,28,3000,NA,0,legacy,NA,no,2,1024,2,even,NA,NA,0,0,C:\Users\pbeli\Documents\GitHub\OMM,legacy,608537703,NA,1,0,NA,legacy,608537703,0,-16,608537704,0,3.3.10,Lentiform Loewenfeld,NA,NA,608537703,3000,yes,NA,NA,0,608537704,3000,NA,608537703,NA,0,NA,NA,NA,NA,608539705,0,0,NA,NA,0,yes,None,3000
178,28,4,finished,099550000003293878,1,0,no,experiment,OMM Background Task,1024,Module4,3000,768,127,0,C:\Users\covop\AppData\Local\Temp\omm.log,0,NA,NA,Fri Nov 19 11:01:39 2021,None,no,18,2021-11-19 10:01:45,black,undefined,white,no,178,48000,0,NA,relative,0,28,Simple touch then sound&reward - via server,mono,no,no,omm,607259402,0,0,NA,legacy,legacy,NA,legacy,50,28,3000,NA,0,legacy,NA,no,2,1024,2,even,NA,NA,0,0,C:\Users\pbeli\Documents\GitHub\OMM,legacy,607254400,NA,1,0,NA,legacy,607254400,0,-16,607254401,0,3.3.10,Lentiform Loewenfeld,NA,NA,607254400,3000,yes,NA,NA,0,607254401,3000,NA,607254400,NA,0,NA,NA,NA,NA,607256402,0,0,NA,NA,0,yes,None,3000
178,28,4,finished,099550000003293903,1,0,no,experiment,OMM Background Task,1024,Module3,3000,768,127,0,C:\Users\covop\AppData\Local\Temp\omm.log,0,NA,NA,Thu Nov 18 13:32:38 2021,None,no,18,2021-11-18 12:32:44,black,undefined,white,no,178,48000,0,NA,relative,0,28,Simple touch then sound&reward - via server,mono,no,no,omm,96162169,0,0,NA,legacy,legacy,NA,legacy,50,28,3000,NA,0,legacy,NA,no,2,1024,2,even,NA,NA,0,0,C:\Users\pbeli\Documents\GitHub\OMM,legacy,96157166,NA,1,0,NA,legacy,96157166,0,-16,96157167,0,3.3.10,Lentiform Loewenfeld,NA,NA,96157166,3000,yes,NA,NA,0,96157167,3000,NA,96157166,NA,0,NA,NA,NA,NA,96159169,0,0,NA,NA,0,yes,None,3000
178,28,4,finished,099550000003293903,2,0,no,experiment,OMM Background Task,1024,Module3,3000,768,127,0,C:\Users\covop\AppData\Local\Temp\omm.log,0,NA,NA,Thu Nov 18 13:32:38 2021,None,no,18,2021-11-18 12:41:48,black,undefined,white,no,178,48000,0,NA,relative,0,28,Simple touch then sound&reward - via server,mono,no,no,omm,96706342,0,0,NA,legacy,legacy,NA,legacy,50,28,3000,NA,0,legacy,NA,no,2,1024,2,even,NA,NA,0,0,C:\Users\pbeli\Documents\GitHub\OMM,legacy,96701339,NA,1,0,NA,legacy,96701340,0,-16,96701341,0,3.3.10,Lentiform Loewenfeld,NA,NA,96701340,3000,yes,NA,NA,0,96701341,3000,NA,96701340,NA,0,NA,NA,NA,NA,96703342,0,0,NA,NA,0,yes,None,3000
179,29,4,finished,099550000003293878,1,0,no,experiment,OMM Background Task,1024,Module4,3000,768,128,0,C:\Users\covop\AppData\Local\Temp\omm.log,0,NA,NA,Fri Nov 19 11:15:58 2021,None,no,18,2021-11-19 10:16:04,black,undefined,white,no,179,48000,0,NA,relative,0,29,Simple touch then sound&reward - via server,mono,no,no,omm,608118077,0,0,NA,legacy,legacy,NA,legacy,50,29,3000,NA,0,legacy,NA,no,2,1024,2,even,NA,NA,0,0,C:\Users\pbeli\Documents\GitHub\OMM,legacy,608113074,NA,1,0,NA,legacy,608113075,0,-16,608113076,0,3.3.10,Lentiform Loewenfeld,NA,NA,608113075,3000,yes,NA,NA,0,608113076,3000,NA,608113075,NA,0,NA,NA,NA,NA,608115077,0,0,NA,NA,0,yes,None,3000
179,29,4,finished,099550000003293878,2,0,no,experiment,OMM Background Task,1024,Module4,3000,768,128,0,C:\Users\covop\AppData\Local\Temp\omm.log,0,NA,NA,Fri Nov 19 11:15:58 2021,None,no,18,2021-11-19 10:18:37,black,undefined,white,no,179,48000,0,NA,relative,0,29,Simple touch then sound&reward - via server,mono,no,no,omm,608270827,0,0,NA,legacy,legacy,NA,legacy,50,29,3000,NA,0,legacy,NA,no,2,1024,2,even,NA,NA,0,0,C:\Users\pbeli\Documents\GitHub\OMM,legacy,608265824,NA,1,0,NA,legacy,608265824,0,-16,608265826,0,3.3.10,Lentiform Loewenfeld,NA,NA,608265824,3000,yes,NA,NA,0,608265826,3000,NA,608265824,NA,0,NA,NA,NA,NA,608267827,0,0,NA,NA,0,yes,None,3000
179,29,4,finished,099550000003293878,3,0,no,experiment,OMM Background Task,1024,Module4,3000,768,128,0,C:\Users\covop\AppData\Local\Temp\omm.log,0,NA,NA,Fri Nov 19 11:15:58 2021,None,no,18,2021-11-19 11:43:24,black,undefined,white,no,179,48000,0,NA,relative,0,29,Simple touch then sound&reward - via server,mono,no,no,omm,613401245,0,0,NA,legacy,legacy,NA,legacy,50,29,3000,NA,0,legacy,NA,no,2,1024,2,even,NA,NA,0,0,C:\Users\pbeli\Documents\GitHub\OMM,legacy,613396242,NA,1,0,NA,legacy,613396242,0,-16,613396243,0,3.3.10,Lentiform Loewenfeld,NA,NA,613396242,3000,yes,NA,NA,0,613396244,3000,NA,613396242,NA,0,NA,NA,NA,NA,613398245,0,0,NA,NA,0,yes,None,3000
179,29,4,finished,099550000003293903,1,0,no,experiment,OMM Background Task,1024,Module3,3000,768,128,0,C:\Users\covop\AppData\Local\Temp\omm.log,0,NA,NA,Thu Nov 18 10:55:56 2021,None,no,18,2021-11-18 09:56:01,black,undefined,white,no,179,48000,0,NA,relative,0,29,Simple touch then sound&reward - via server,mono,no,no,omm,86759886,0,0,NA,legacy,legacy,NA,legacy,50,29,3000,NA,0,legacy,NA,no,2,1024,2,even,NA,NA,0,0,C:\Users\pbeli\Documents\GitHub\OMM,legacy,86754884,NA,1,0,NA,legacy,86754884,0,-16,86754886,0,3.3.10,Lentiform Loewenfeld,NA,NA,86754884,3000,yes,NA,NA,0,86754886,3000,NA,86754884,NA,0,NA,NA,NA,NA,86756886,0,0,NA,NA,0,yes,None,3000
179,29,4,finished,099550000003293903,2,0,no,experiment,OMM Background Task,1024,Module3,984,768,128,0,C:\Users\covop\AppData\Local\Temp\omm.log,0,-270,127,Thu Nov 18 10:55:56 2021,9,no,18,2021-11-18 10:45:01,black,undefined,white,no,179,48000,0,NA,relative,0,29,Simple touch then sound&reward - via server,mono,no,no,omm,89699608,0,0,NA,legacy,legacy,NA,legacy,50,29,984,NA,0,legacy,NA,no,2,1024,2,even,NA,NA,0,0,C:\Users\pbeli\Documents\GitHub\OMM,legacy,89696620,NA,1,0,NA,legacy,89696620,0,-16,89696621,0,3.3.10,Lentiform Loewenfeld,NA,NA,89696620,984,yes,NA,NA,0,89696621,984,NA,89696620,NA,0,NA,NA,NA,NA,89698623,0,0,NA,NA,0,yes,9,984
179,29,4,finished,099550000003293903,3,0,no,experiment,OMM Background Task,1024,Module3,3000,768,128,0,C:\Users\covop\AppData\Local\Temp\omm.log,0,NA,NA,Thu Nov 18 10:55:56 2021,None,no,18,2021-11-18 10:56:39,black,undefined,white,no,179,48000,0,NA,relative,0,29,Simple touch then sound&reward - via server,mono,no,no,omm,90397383,0,0,NA,legacy,legacy,NA,legacy,50,29,3000,NA,0,legacy,NA,no,2,1024,2,even,NA,NA,0,0,C:\Users\pbeli\Documents\GitHub\OMM,legacy,90392380,NA,1,0,NA,legacy,90392381,0,-16,90392382,0,3.3.10,Lentiform Loewenfeld,NA,NA,90392381,3000,yes,NA,NA,0,90392382,3000,NA,90392381,NA,0,NA,NA,NA,NA,90394383,0,0,NA,NA,0,yes,None,3000
179,29,4,finished,099550000003293903,4,0,no,experiment,OMM Background Task,1024,Module3,3000,768,128,0,C:\Users\covop\AppData\Local\Temp\omm.log,0,NA,NA,Thu Nov 18 10:55:56 2021,None,no,18,2021-11-18 12:11:02,black,undefined,white,no,179,48000,0,NA,relative,0,29,Simple touch then sound&reward - via server,mono,no,no,omm,94860174,0,0,NA,legacy,legacy,NA,legacy,50,29,3000,NA,0,legacy,NA,no,2,1024,2,even,NA,NA,0,0,C:\Users\pbeli\Documents\GitHub\OMM,legacy,94855171,NA,1,0,NA,legacy,94855172,0,-16,94855173,0,3.3.10,Lentiform Loewenfeld,NA,NA,94855172,3000,yes,NA,NA,0,94855173,3000,NA,94855172,NA,0,NA,NA,NA,NA,94857174,0,0,NA,NA,0,yes,None,3000
179,29,4,finished,099550000003293903,5,0,no,experiment,OMM Background Task,1024,Module3,3000,768,128,0,C:\Users\covop\AppData\Local\Temp\omm.log,0,NA,NA,Thu Nov 18 10:55:56 2021,None,no,18,2021-11-19 09:54:29,black,undefined,white,no,179,48000,0,NA,relative,0,29,Simple touch then sound&reward - via server,mono,no,no,omm,173067924,0,0,NA,legacy,legacy,NA,legacy,50,29,3000,NA,0,legacy,NA,no,2,1024,2,even,NA,NA,0,0,C:\Users\pbeli\Documents\GitHub\OMM,legacy,173062922,NA,1,0,NA,legacy,173062922,0,-16,173062923,0,3.3.10,Lentiform Loewenfeld,NA,NA,173062922,3000,yes,NA,NA,0,173062923,3000,NA,173062922,NA,0,NA,NA,NA,NA,173064924,0,0,NA,NA,0,yes,None,3000
180,30,4,finished,099550000003505539,1,100,no,experiment,OMM Background Task,1024,Module4,1240,768,129,1,C:\Users\covop\AppData\Local\Temp\omm.log,100,10,17,Wed Nov 17 10:57:55 2021,11,no,18,2021-11-17 09:58:02,black,undefined,white,no,180,48000,0,434231284,relative,0,30,Simple touch then sound&reward - via server,mono,no,no,omm,434235242,0,0,NA,legacy,legacy,NA,legacy,50,30,1240,NA,1,legacy,NA,no,2,1024,2,even,434233742,NA,0,0,C:\Users\pbeli\Documents\GitHub\OMM,legacy,434228042,434231284,1,0,NA,legacy,434228042,0,-16,434228043,0,3.3.10,Lentiform Loewenfeld,NA,434231741,434228042,1240,yes,NA,NA,0,434228043,1240,NA,434228042,NA,0,NA,NA,NA,NA,434230044,0,0,NA,NA,1,yes,11,1240
180,30,4,finished,099550000003293892,1,0,no,experiment,OMM Background Task,1024,Module4,3000,768,129,0,C:\Users\covop\AppData\Local\Temp\omm.log,0,NA,NA,Fri Nov 19 11:04:22 2021,None,no,18,2021-11-19 10:04:28,black,undefined,white,no,180,48000,0,NA,relative,0,30,Simple touch then sound&reward - via server,mono,no,no,omm,607422200,0,0,NA,legacy,legacy,NA,legacy,50,30,3000,NA,0,legacy,NA,no,2,1024,2,even,NA,NA,0,0,C:\Users\pbeli\Documents\GitHub\OMM,legacy,607417197,NA,1,0,NA,legacy,607417197,0,-16,607417199,0,3.3.10,Lentiform Loewenfeld,NA,NA,607417197,3000,yes,NA,NA,0,607417199,3000,NA,607417197,NA,0,NA,NA,NA,NA,607419200,0,0,NA,NA,0,yes,None,3000
180,30,4,finished,099550000003293903,1,0,no,experiment,OMM Background Task,1024,Module3,3001,768,129,0,C:\Users\covop\AppData\Local\Temp\omm.log,0,NA,NA,Thu Nov 18 13:34:24 2021,None,no,18,2021-11-18 12:34:30,black,undefined,white,no,180,48000,0,NA,relative,0,30,Simple touch then sound&reward - via server,mono,no,no,omm,96268477,0,0,NA,legacy,legacy,NA,legacy,50,30,3001,NA,0,legacy,NA,no,2,1024,2,even,NA,NA,0,0,C:\Users\pbeli\Documents\GitHub\OMM,legacy,96263474,NA,1,0,NA,legacy,96263474,0,-16,96263475,0,3.3.10,Lentiform Loewenfeld,NA,NA,96263474,3001,yes,NA,NA,0,96263475,3001,NA,96263474,NA,0,NA,NA,NA,NA,96265476,0,0,NA,NA,0,yes,None,3001
180,30,4,finished,099550000003293878,1,0,no,experiment,OMM Background Task,1024,Module4,3000,768,129,0,C:\Users\covop\AppData\Local\Temp\omm.log,0,NA,NA,Fri Nov 19 11:16:39 2021,None,no,18,2021-11-19 10:16:44,black,undefined,white,no,180,48000,0,NA,relative,0,30,Simple touch then sound&reward - via server,mono,no,no,omm,608158593,0,0,NA,legacy,legacy,NA,legacy,50,30,3000,NA,0,legacy,NA,no,2,1024,2,even,NA,NA,0,0,C:\Users\pbeli\Documents\GitHub\OMM,legacy,608153591,NA,1,0,NA,legacy,608153591,0,-16,608153592,0,3.3.10,Lentiform Loewenfeld,NA,NA,608153591,3000,yes,NA,NA,0,608153592,3000,NA,608153591,NA,0,NA,NA,NA,NA,608155593,0,0,NA,NA,0,yes,None,3000
181,31,4,finished,099550000003293892,1,0,no,experiment,OMM Background Task,1024,Module2,3000,768,130,0,C:\Users\covop\AppData\Local\Temp\omm.log,0,NA,NA,Fri Nov 19 11:58:50 2021,None,no,18,2021-11-19 10:58:57,black,undefined,white,no,181,48000,0,NA,relative,0,31,Simple touch then sound&reward - via server,mono,no,no,omm,610734047,0,0,NA,legacy,legacy,NA,legacy,50,31,3000,NA,0,legacy,NA,no,2,1024,2,even,NA,NA,0,0,C:\Users\pbeli\Documents\GitHub\OMM,legacy,610729042,NA,1,0,NA,legacy,610729042,0,-16,610729043,0,3.3.10,Lentiform Loewenfeld,NA,NA,610729042,3000,yes,NA,NA,0,610729043,3000,NA,610729042,NA,0,NA,NA,NA,NA,610731047,0,0,NA,NA,0,yes,None,3000
181,31,4,finished,099550000003293903,1,0,no,experiment,OMM Background Task,1024,Module3,3000,768,130,0,C:\Users\covop\AppData\Local\Temp\omm.log,0,NA,NA,Thu Nov 18 13:43:08 2021,None,no,18,2021-11-18 12:43:14,black,undefined,white,no,181,48000,0,NA,relative,0,31,Simple touch then sound&reward - via server,mono,no,no,omm,96792275,0,0,NA,legacy,legacy,NA,legacy,50,31,3000,NA,0,legacy,NA,no,2,1024,2,even,NA,NA,0,0,C:\Users\pbeli\Documents\GitHub\OMM,legacy,96787272,NA,1,0,NA,legacy,96787272,0,-16,96787273,0,3.3.10,Lentiform Loewenfeld,NA,NA,96787272,3000,yes,NA,NA,0,96787273,3000,NA,96787272,NA,0,NA,NA,NA,NA,96789275,0,0,NA,NA,0,yes,None,3000
