{'SoundID': 100, 'acc': 100, 'accuracy': 100, 'average_response_time': 5862, 'avg_rt': 5862, 'background': 'black', 'bidi': 'no', 'canvas_backend': 'legacy', 'compensation': 0, 'coordinates': 'relative', 'correct': 1, 'correct_new_touch_response': 1, 'count_delay_1': 'NA', 'count_delay_1_1': 0, 'count_empty_sequence': 'NA', 'count_experiment': 0, 'count_logger': 0, 'count_make_task_infinite': 0, 'count_new_OMMConditioner': 'NA', 'count_new_OMMConditioner_1': 'NA', 'count_new_loop': 'NA', 'count_new_repeat_cycle': 'NA', 'count_new_touch_response': 0, 'count_request_job': 0, 'count_sound': 0, 'count_start_button': 0, 'count_test_loop': 0, 'count_trial_sequence': 0, 'cursor_roi': 'undefined', 'cursor_x': 8, 'cursor_y': -1, 'datetime': 'Tue Oct 26 10:36:51 2021', 'description': 'Simple touch then sound&reward - via server', 'disable_garbage_collection': 'yes', 'experiment_path': 'C:/Users/pbeli/Documents/GitHub/OMM', 'font_bold': 'no', 'font_family': 'mono', 'font_italic': 'no', 'font_size': 18, 'font_underline': 'no', 'foreground': 'white', 'form_clicks': 'no', 'fullscreen': 'no', 'height': 768, 'log_backend': 'omm', 'logfile': 'C:/Users/pbeli/Documents/GitHub/OMM\\omm.log', 'omm_block_index': None, 'omm_job_count': None, 'omm_job_id': None, 'omm_job_index': None, 'omm_job_index_in_block': None, 'opensesame_codename': 'Lentiform Loewenfeld', 'opensesame_version': '3.3.9', 'response': 7, 'response_new_touch_response': 7, 'response_time': 5862, 'response_time_new_touch_response': 5862, 'round_decimals': 2, 'sound_buf_size': 1024, 'sound_channels': 2, 'sound_freq': 48000, 'sound_sample_size': -16, 'start': 'experiment', 'subject_nr': 0, 'subject_parity': 'even', 'time_delay_1': 'NA', 'time_delay_1_1': 9422, 'time_empty_sequence': 'NA', 'time_experiment': 3115, 'time_logger': 10922, 'time_make_task_infinite': 'NA', 'time_new_OMMConditioner': 8978, 'time_new_OMMConditioner_1': 9421, 'time_new_loop': 'NA', 'time_new_repeat_cycle': 'NA', 'time_new_touch_response': 3116, 'time_request_job': 3115, 'time_sound': 8978, 'time_start_button': 3116, 'time_test_loop': 'NA', 'time_trial_sequence': 3115, 'title': 'OMM Background Task', 'total_correct': 1, 'total_response_time': 5862, 'total_responses': 1, 'uniform_coordinates': 'yes', 'width': 1024}
{'SoundID': 100, 'acc': 100, 'accuracy': 100, 'average_response_time': 2718, 'avg_rt': 2718, 'background': 'black', 'bidi': 'no', 'canvas_backend': 'legacy', 'compensation': 0, 'coordinates': 'relative', 'correct': 1, 'correct_new_touch_response': 1, 'count_delay_1': 'NA', 'count_delay_1_1': 0, 'count_empty_sequence': 'NA', 'count_experiment': 0, 'count_logger': 0, 'count_make_task_infinite': 0, 'count_new_OMMConditioner': 'NA', 'count_new_OMMConditioner_1': 'NA', 'count_new_loop': 'NA', 'count_new_repeat_cycle': 'NA', 'count_new_touch_response': 0, 'count_request_job': 0, 'count_sound': 0, 'count_start_button': 0, 'count_test_loop': 0, 'count_trial_sequence': 0, 'cursor_roi': 'undefined', 'cursor_x': -2, 'cursor_y': -15, 'datetime': 'Tue Oct 26 10:37:03 2021', 'description': 'Simple touch then sound&reward - via server', 'disable_garbage_collection': 'yes', 'experiment_path': 'C:/Users/pbeli/Documents/GitHub/OMM', 'font_bold': 'no', 'font_family': 'mono', 'font_italic': 'no', 'font_size': 18, 'font_underline': 'no', 'foreground': 'white', 'form_clicks': 'no', 'fullscreen': 'no', 'height': 768, 'log_backend': 'omm', 'logfile': 'C:/Users/pbeli/Documents/GitHub/OMM\\omm.log', 'omm_block_index': None, 'omm_job_count': None, 'omm_job_id': None, 'omm_job_index': None, 'omm_job_index_in_block': None, 'opensesame_codename': 'Lentiform Loewenfeld', 'opensesame_version': '3.3.9', 'response': 6, 'response_new_touch_response': 6, 'response_time': 2718, 'response_time_new_touch_response': 2718, 'round_decimals': 2, 'sound_buf_size': 1024, 'sound_channels': 2, 'sound_freq': 48000, 'sound_sample_size': -16, 'start': 'experiment', 'subject_nr': 0, 'subject_parity': 'even', 'time_delay_1': 'NA', 'time_delay_1_1': 17882, 'time_empty_sequence': 'NA', 'time_experiment': 14700, 'time_logger': 19382, 'time_make_task_infinite': 'NA', 'time_new_OMMConditioner': 17419, 'time_new_OMMConditioner_1': 17881, 'time_new_loop': 'NA', 'time_new_repeat_cycle': 'NA', 'time_new_touch_response': 14701, 'time_request_job': 14700, 'time_sound': 17419, 'time_start_button': 14701, 'time_test_loop': 'NA', 'time_trial_sequence': 14700, 'title': 'OMM Background Task', 'total_correct': 1, 'total_response_time': 2718, 'total_responses': 1, 'uniform_coordinates': 'yes', 'width': 1024}
{'SoundID': 100, 'acc': 100, 'accuracy': 100, 'average_response_time': 1851, 'avg_rt': 1851, 'background': 'black', 'bidi': 'no', 'canvas_backend': 'legacy', 'compensation': 0, 'coordinates': 'relative', 'correct': 1, 'correct_new_touch_response': 1, 'count_delay_1': 'NA', 'count_delay_1_1': 0, 'count_empty_sequence': 'NA', 'count_experiment': 0, 'count_logger': 0, 'count_make_task_infinite': 0, 'count_new_OMMConditioner': 'NA', 'count_new_OMMConditioner_1': 'NA', 'count_new_loop': 'NA', 'count_new_repeat_cycle': 'NA', 'count_new_touch_response': 0, 'count_request_job': 0, 'count_sound': 0, 'count_start_button': 0, 'count_test_loop': 0, 'count_trial_sequence': 0, 'cursor_roi': 'undefined', 'cursor_x': 0, 'cursor_y': -9, 'datetime': 'Tue Oct 26 10:37:09 2021', 'description': 'Simple touch then sound&reward - via server', 'disable_garbage_collection': 'yes', 'experiment_path': 'C:/Users/pbeli/Documents/GitHub/OMM', 'font_bold': 'no', 'font_family': 'mono', 'font_italic': 'no', 'font_size': 18, 'font_underline': 'no', 'foreground': 'white', 'form_clicks': 'no', 'fullscreen': 'no', 'height': 768, 'log_backend': 'omm', 'logfile': 'C:/Users/pbeli/Documents/GitHub/OMM\\omm.log', 'omm_block_index': None, 'omm_job_count': None, 'omm_job_id': None, 'omm_job_index': None, 'omm_job_index_in_block': None, 'opensesame_codename': 'Lentiform Loewenfeld', 'opensesame_version': '3.3.9', 'response': 7, 'response_new_touch_response': 7, 'response_time': 1851, 'response_time_new_touch_response': 1851, 'round_decimals': 2, 'sound_buf_size': 1024, 'sound_channels': 2, 'sound_freq': 48000, 'sound_sample_size': -16, 'start': 'experiment', 'subject_nr': 0, 'subject_parity': 'even', 'time_delay_1': 'NA', 'time_delay_1_1': 23359, 'time_empty_sequence': 'NA', 'time_experiment': 21056, 'time_logger': 24859, 'time_make_task_infinite': 'NA', 'time_new_OMMConditioner': 22909, 'time_new_OMMConditioner_1': 23358, 'time_new_loop': 'NA', 'time_new_repeat_cycle': 'NA', 'time_new_touch_response': 21058, 'time_request_job': 21057, 'time_sound': 22910, 'time_start_button': 21058, 'time_test_loop': 'NA', 'time_trial_sequence': 21057, 'title': 'OMM Background Task', 'total_correct': 1, 'total_response_time': 1851, 'total_responses': 1, 'uniform_coordinates': 'yes', 'width': 1024}
{'SoundID': 100, 'acc': 100, 'accuracy': 100, 'average_response_time': 1947, 'avg_rt': 1947, 'background': 'black', 'bidi': 'no', 'canvas_backend': 'legacy', 'compensation': 0, 'coordinates': 'relative', 'correct': 1, 'correct_new_touch_response': 1, 'count_delay_1': 'NA', 'count_delay_1_1': 0, 'count_empty_sequence': 'NA', 'count_experiment': 0, 'count_logger': 0, 'count_make_task_infinite': 0, 'count_new_OMMConditioner': 'NA', 'count_new_OMMConditioner_1': 'NA', 'count_new_loop': 'NA', 'count_new_repeat_cycle': 'NA', 'count_new_touch_response': 0, 'count_request_job': 0, 'count_sound': 0, 'count_start_button': 0, 'count_test_loop': 0, 'count_trial_sequence': 0, 'cursor_roi': 'undefined', 'cursor_x': 11, 'cursor_y': -23, 'datetime': 'Tue Oct 26 10:37:18 2021', 'description': 'Simple touch then sound&reward - via server', 'disable_garbage_collection': 'yes', 'experiment_path': 'C:/Users/pbeli/Documents/GitHub/OMM', 'font_bold': 'no', 'font_family': 'mono', 'font_italic': 'no', 'font_size': 18, 'font_underline': 'no', 'foreground': 'white', 'form_clicks': 'no', 'fullscreen': 'no', 'height': 768, 'log_backend': 'omm', 'logfile': 'C:/Users/pbeli/Documents/GitHub/OMM\\omm.log', 'omm_block_index': None, 'omm_job_count': None, 'omm_job_id': None, 'omm_job_index': None, 'omm_job_index_in_block': None, 'opensesame_codename': 'Lentiform Loewenfeld', 'opensesame_version': '3.3.9', 'response': 7, 'response_new_touch_response': 7, 'response_time': 1947, 'response_time_new_touch_response': 1947, 'round_decimals': 2, 'sound_buf_size': 1024, 'sound_channels': 2, 'sound_freq': 48000, 'sound_sample_size': -16, 'start': 'experiment', 'subject_nr': 0, 'subject_parity': 'even', 'time_delay_1': 'NA', 'time_delay_1_1': 31820, 'time_empty_sequence': 'NA', 'time_experiment': 29414, 'time_logger': 33320, 'time_make_task_infinite': 'NA', 'time_new_OMMConditioner': 31362, 'time_new_OMMConditioner_1': 31819, 'time_new_loop': 'NA', 'time_new_repeat_cycle': 'NA', 'time_new_touch_response': 29415, 'time_request_job': 29414, 'time_sound': 31362, 'time_start_button': 29415, 'time_test_loop': 'NA', 'time_trial_sequence': 29414, 'title': 'OMM Background Task', 'total_correct': 1, 'total_response_time': 1947, 'total_responses': 1, 'uniform_coordinates': 'yes', 'width': 1024}
{'SoundID': 100, 'acc': 100, 'accuracy': 100, 'average_response_time': 2002, 'avg_rt': 2002, 'background': 'black', 'bidi': 'no', 'canvas_backend': 'legacy', 'compensation': 0, 'coordinates': 'relative', 'correct': 1, 'correct_new_touch_response': 1, 'count_delay_1': 'NA', 'count_delay_1_1': 0, 'count_empty_sequence': 'NA', 'count_experiment': 0, 'count_logger': 0, 'count_make_task_infinite': 0, 'count_new_OMMConditioner': 'NA', 'count_new_OMMConditioner_1': 'NA', 'count_new_loop': 'NA', 'count_new_repeat_cycle': 'NA', 'count_new_touch_response': 0, 'count_request_job': 0, 'count_sound': 0, 'count_start_button': 0, 'count_test_loop': 0, 'count_trial_sequence': 0, 'cursor_roi': 'undefined', 'cursor_x': 3, 'cursor_y': 0, 'datetime': 'Tue Oct 26 10:38:25 2021', 'description': 'Simple touch then sound&reward - via server', 'disable_garbage_collection': 'yes', 'experiment_path': 'C:/Users/pbeli/Documents/GitHub/OMM', 'font_bold': 'no', 'font_family': 'mono', 'font_italic': 'no', 'font_size': 18, 'font_underline': 'no', 'foreground': 'white', 'form_clicks': 'no', 'fullscreen': 'no', 'height': 768, 'log_backend': 'omm', 'logfile': 'C:/Users/pbeli/Documents/GitHub/OMM\\omm.log', 'omm_block_index': None, 'omm_job_count': None, 'omm_job_id': None, 'omm_job_index': None, 'omm_job_index_in_block': None, 'opensesame_codename': 'Lentiform Loewenfeld', 'opensesame_version': '3.3.9', 'response': 11, 'response_new_touch_response': 11, 'response_time': 2002, 'response_time_new_touch_response': 2002, 'round_decimals': 2, 'sound_buf_size': 1024, 'sound_channels': 2, 'sound_freq': 48000, 'sound_sample_size': -16, 'start': 'experiment', 'subject_nr': 0, 'subject_parity': 'even', 'time_delay_1': 'NA', 'time_delay_1_1': 5080, 'time_empty_sequence': 'NA', 'time_experiment': 2608, 'time_logger': 6580, 'time_make_task_infinite': 'NA', 'time_new_OMMConditioner': 4611, 'time_new_OMMConditioner_1': 5079, 'time_new_loop': 'NA', 'time_new_repeat_cycle': 'NA', 'time_new_touch_response': 2609, 'time_request_job': 2608, 'time_sound': 4611, 'time_start_button': 2609, 'time_test_loop': 'NA', 'time_trial_sequence': 2608, 'title': 'OMM Background Task', 'total_correct': 1, 'total_response_time': 2002, 'total_responses': 1, 'uniform_coordinates': 'yes', 'width': 1024}
{'SoundID': 100, 'acc': 100, 'accuracy': 100, 'average_response_time': 2989, 'avg_rt': 2989, 'background': 'black', 'bidi': 'no', 'canvas_backend': 'legacy', 'compensation': 0, 'coordinates': 'relative', 'correct': 1, 'correct_new_touch_response': 1, 'count_delay_1': 'NA', 'count_delay_1_1': 0, 'count_empty_sequence': 'NA', 'count_experiment': 0, 'count_logger': 0, 'count_make_task_infinite': 0, 'count_new_OMMConditioner': 'NA', 'count_new_OMMConditioner_1': 'NA', 'count_new_loop': 'NA', 'count_new_repeat_cycle': 'NA', 'count_new_touch_response': 0, 'count_request_job': 0, 'count_sound': 0, 'count_start_button': 0, 'count_test_loop': 0, 'count_trial_sequence': 0, 'cursor_roi': 'undefined', 'cursor_x': 0, 'cursor_y': 0, 'datetime': 'Tue Oct 26 10:38:33 2021', 'description': 'Simple touch then sound&reward - via server', 'disable_garbage_collection': 'yes', 'experiment_path': 'C:/Users/pbeli/Documents/GitHub/OMM', 'font_bold': 'no', 'font_family': 'mono', 'font_italic': 'no', 'font_size': 18, 'font_underline': 'no', 'foreground': 'white', 'form_clicks': 'no', 'fullscreen': 'no', 'height': 768, 'log_backend': 'omm', 'logfile': 'C:/Users/pbeli/Documents/GitHub/OMM\\omm.log', 'omm_block_index': None, 'omm_job_count': None, 'omm_job_id': None, 'omm_job_index': None, 'omm_job_index_in_block': None, 'opensesame_codename': 'Lentiform Loewenfeld', 'opensesame_version': '3.3.9', 'response': 11, 'response_new_touch_response': 11, 'response_time': 2989, 'response_time_new_touch_response': 2989, 'round_decimals': 2, 'sound_buf_size': 1024, 'sound_channels': 2, 'sound_freq': 48000, 'sound_sample_size': -16, 'start': 'experiment', 'subject_nr': 0, 'subject_parity': 'even', 'time_delay_1': 'NA', 'time_delay_1_1': 14044, 'time_empty_sequence': 'NA', 'time_experiment': 10599, 'time_logger': 15544, 'time_make_task_infinite': 'NA', 'time_new_OMMConditioner': 13589, 'time_new_OMMConditioner_1': 14043, 'time_new_loop': 'NA', 'time_new_repeat_cycle': 'NA', 'time_new_touch_response': 10600, 'time_request_job': 10599, 'time_sound': 13589, 'time_start_button': 10600, 'time_test_loop': 'NA', 'time_trial_sequence': 10599, 'title': 'OMM Background Task', 'total_correct': 1, 'total_response_time': 2989, 'total_responses': 1, 'uniform_coordinates': 'yes', 'width': 1024}
{'SoundID': 100, 'acc': 0, 'accuracy': 0, 'average_response_time': 881, 'avg_rt': 881, 'background': 'black', 'bidi': 'no', 'canvas_backend': 'legacy', 'compensation': 0, 'coordinates': 'relative', 'correct': 0, 'correct_new_touch_response': 0, 'count_delay_1': 'NA', 'count_delay_1_1': 0, 'count_empty_sequence': 'NA', 'count_experiment': 0, 'count_logger': 0, 'count_make_task_infinite': 0, 'count_new_OMMConditioner': 'NA', 'count_new_OMMConditioner_1': 'NA', 'count_new_loop': 'NA', 'count_new_repeat_cycle': 'NA', 'count_new_touch_response': 0, 'count_request_job': 0, 'count_sound': 0, 'count_start_button': 0, 'count_test_loop': 0, 'count_trial_sequence': 0, 'cursor_roi': 'undefined', 'cursor_x': 123, 'cursor_y': -303, 'datetime': 'Tue Oct 26 10:38:40 2021', 'description': 'Simple touch then sound&reward - via server', 'disable_garbage_collection': 'yes', 'experiment_path': 'C:/Users/pbeli/Documents/GitHub/OMM', 'font_bold': 'no', 'font_family': 'mono', 'font_italic': 'no', 'font_size': 18, 'font_underline': 'no', 'foreground': 'white', 'form_clicks': 'no', 'fullscreen': 'no', 'height': 768, 'log_backend': 'omm', 'logfile': 'C:/Users/pbeli/Documents/GitHub/OMM\\omm.log', 'omm_block_index': None, 'omm_job_count': None, 'omm_job_id': None, 'omm_job_index': None, 'omm_job_index_in_block': None, 'opensesame_codename': 'Lentiform Loewenfeld', 'opensesame_version': '3.3.9', 'response': 3, 'response_new_touch_response': 3, 'response_time': 881, 'response_time_new_touch_response': 881, 'round_decimals': 2, 'sound_buf_size': 1024, 'sound_channels': 2, 'sound_freq': 48000, 'sound_sample_size': -16, 'start': 'experiment', 'subject_nr': 0, 'subject_parity': 'even', 'time_delay_1': 'NA', 'time_delay_1_1': 'NA', 'time_empty_sequence': 'NA', 'time_experiment': 17956, 'time_logger': 18839, 'time_make_task_infinite': 'NA', 'time_new_OMMConditioner': 'NA', 'time_new_OMMConditioner_1': 'NA', 'time_new_loop': 'NA', 'time_new_repeat_cycle': 'NA', 'time_new_touch_response': 17957, 'time_request_job': 17956, 'time_sound': 'NA', 'time_start_button': 17957, 'time_test_loop': 'NA', 'time_trial_sequence': 17956, 'title': 'OMM Background Task', 'total_correct': 0, 'total_response_time': 881, 'total_responses': 1, 'uniform_coordinates': 'yes', 'width': 1024}
{'SoundID': 100, 'acc': 100, 'accuracy': 100, 'average_response_time': 721, 'avg_rt': 721, 'background': 'black', 'bidi': 'no', 'canvas_backend': 'legacy', 'compensation': 0, 'coordinates': 'relative', 'correct': 1, 'correct_new_touch_response': 1, 'count_delay_1': 'NA', 'count_delay_1_1': 0, 'count_empty_sequence': 'NA', 'count_experiment': 0, 'count_logger': 0, 'count_make_task_infinite': 0, 'count_new_OMMConditioner': 'NA', 'count_new_OMMConditioner_1': 'NA', 'count_new_loop': 'NA', 'count_new_repeat_cycle': 'NA', 'count_new_touch_response': 0, 'count_request_job': 0, 'count_sound': 0, 'count_start_button': 0, 'count_test_loop': 0, 'count_trial_sequence': 0, 'cursor_roi': 'undefined', 'cursor_x': -19, 'cursor_y': -43, 'datetime': 'Tue Oct 26 10:38:48 2021', 'description': 'Simple touch then sound&reward - via server', 'disable_garbage_collection': 'yes', 'experiment_path': 'C:/Users/pbeli/Documents/GitHub/OMM', 'font_bold': 'no', 'font_family': 'mono', 'font_italic': 'no', 'font_size': 18, 'font_underline': 'no', 'foreground': 'white', 'form_clicks': 'no', 'fullscreen': 'no', 'height': 768, 'log_backend': 'omm', 'logfile': 'C:/Users/pbeli/Documents/GitHub/OMM\\omm.log', 'omm_block_index': None, 'omm_job_count': None, 'omm_job_id': None, 'omm_job_index': None, 'omm_job_index_in_block': None, 'opensesame_codename': 'Lentiform Loewenfeld', 'opensesame_version': '3.3.9', 'response': 6, 'response_new_touch_response': 6, 'response_time': 721, 'response_time_new_touch_response': 721, 'round_decimals': 2, 'sound_buf_size': 1024, 'sound_channels': 2, 'sound_freq': 48000, 'sound_sample_size': -16, 'start': 'experiment', 'subject_nr': 0, 'subject_parity': 'even', 'time_delay_1': 'NA', 'time_delay_1_1': 26679, 'time_empty_sequence': 'NA', 'time_experiment': 25504, 'time_logger': 28179, 'time_make_task_infinite': 'NA', 'time_new_OMMConditioner': 26227, 'time_new_OMMConditioner_1': 26678, 'time_new_loop': 'NA', 'time_new_repeat_cycle': 'NA', 'time_new_touch_response': 25506, 'time_request_job': 25505, 'time_sound': 26227, 'time_start_button': 25506, 'time_test_loop': 'NA', 'time_trial_sequence': 25505, 'title': 'OMM Background Task', 'total_correct': 1, 'total_response_time': 721, 'total_responses': 1, 'uniform_coordinates': 'yes', 'width': 1024}
{'SoundID': 100, 'acc': 100, 'accuracy': 100, 'average_response_time': 1086, 'avg_rt': 1086, 'background': 'black', 'bidi': 'no', 'canvas_backend': 'legacy', 'compensation': 0, 'coordinates': 'relative', 'correct': 1, 'correct_new_touch_response': 1, 'count_delay_1': 'NA', 'count_delay_1_1': 0, 'count_empty_sequence': 'NA', 'count_experiment': 0, 'count_logger': 0, 'count_make_task_infinite': 0, 'count_new_OMMConditioner': 'NA', 'count_new_OMMConditioner_1': 'NA', 'count_new_loop': 'NA', 'count_new_repeat_cycle': 'NA', 'count_new_touch_response': 0, 'count_request_job': 0, 'count_sound': 0, 'count_start_button': 0, 'count_test_loop': 0, 'count_trial_sequence': 0, 'cursor_roi': 'undefined', 'cursor_x': 27, 'cursor_y': -9, 'datetime': 'Tue Oct 26 10:38:55 2021', 'description': 'Simple touch then sound&reward - via server', 'disable_garbage_collection': 'yes', 'experiment_path': 'C:/Users/pbeli/Documents/GitHub/OMM', 'font_bold': 'no', 'font_family': 'mono', 'font_italic': 'no', 'font_size': 18, 'font_underline': 'no', 'foreground': 'white', 'form_clicks': 'no', 'fullscreen': 'no', 'height': 768, 'log_backend': 'omm', 'logfile': 'C:/Users/pbeli/Documents/GitHub/OMM\\omm.log', 'omm_block_index': None, 'omm_job_count': None, 'omm_job_id': None, 'omm_job_index': None, 'omm_job_index_in_block': None, 'opensesame_codename': 'Lentiform Loewenfeld', 'opensesame_version': '3.3.9', 'response': 7, 'response_new_touch_response': 7, 'response_time': 1086, 'response_time_new_touch_response': 1086, 'round_decimals': 2, 'sound_buf_size': 1024, 'sound_channels': 2, 'sound_freq': 48000, 'sound_sample_size': -16, 'start': 'experiment', 'subject_nr': 0, 'subject_parity': 'even', 'time_delay_1': 'NA', 'time_delay_1_1': 33882, 'time_empty_sequence': 'NA', 'time_experiment': 32339, 'time_logger': 35382, 'time_make_task_infinite': 'NA', 'time_new_OMMConditioner': 33427, 'time_new_OMMConditioner_1': 33882, 'time_new_loop': 'NA', 'time_new_repeat_cycle': 'NA', 'time_new_touch_response': 32340, 'time_request_job': 32339, 'time_sound': 33427, 'time_start_button': 32340, 'time_test_loop': 'NA', 'time_trial_sequence': 32339, 'title': 'OMM Background Task', 'total_correct': 1, 'total_response_time': 1086, 'total_responses': 1, 'uniform_coordinates': 'yes', 'width': 1024}
{'SoundID': 101, 'acc': 100, 'accuracy': 100, 'average_response_time': 1039, 'avg_rt': 1039, 'background': 'black', 'bidi': 'no', 'canvas_backend': 'legacy', 'compensation': 0, 'coordinates': 'relative', 'correct': 1, 'correct_new_touch_response': 1, 'count_delay_1': 'NA', 'count_delay_1_1': 0, 'count_empty_sequence': 'NA', 'count_experiment': 0, 'count_logger': 0, 'count_make_task_infinite': 0, 'count_new_OMMConditioner': 'NA', 'count_new_OMMConditioner_1': 'NA', 'count_new_loop': 'NA', 'count_new_repeat_cycle': 'NA', 'count_new_touch_response': 0, 'count_request_job': 0, 'count_sound': 0, 'count_start_button': 0, 'count_test_loop': 0, 'count_trial_sequence': 0, 'cursor_roi': 'undefined', 'cursor_x': 44, 'cursor_y': 23, 'datetime': 'Tue Oct 26 10:40:53 2021', 'description': 'Simple touch then sound&reward - via server', 'disable_garbage_collection': 'yes', 'experiment_path': 'C:/Users/pbeli/Documents/GitHub/OMM', 'font_bold': 'no', 'font_family': 'mono', 'font_italic': 'no', 'font_size': 18, 'font_underline': 'no', 'foreground': 'white', 'form_clicks': 'no', 'fullscreen': 'no', 'height': 768, 'log_backend': 'omm', 'logfile': 'C:/Users/pbeli/Documents/GitHub/OMM\\omm.log', 'omm_block_index': None, 'omm_job_count': None, 'omm_job_id': None, 'omm_job_index': None, 'omm_job_index_in_block': None, 'opensesame_codename': 'Lentiform Loewenfeld', 'opensesame_version': '3.3.9', 'response': 11, 'response_new_touch_response': 11, 'response_time': 1039, 'response_time_new_touch_response': 1039, 'round_decimals': 2, 'sound_buf_size': 1024, 'sound_channels': 2, 'sound_freq': 48000, 'sound_sample_size': -16, 'start': 'experiment', 'subject_nr': 0, 'subject_parity': 'even', 'time_delay_1': 'NA', 'time_delay_1_1': 4100, 'time_empty_sequence': 'NA', 'time_experiment': 2607, 'time_logger': 5600, 'time_make_task_infinite': 'NA', 'time_new_OMMConditioner': 3648, 'time_new_OMMConditioner_1': 4099, 'time_new_loop': 'NA', 'time_new_repeat_cycle': 'NA', 'time_new_touch_response': 2608, 'time_request_job': 2607, 'time_sound': 3648, 'time_start_button': 2608, 'time_test_loop': 'NA', 'time_trial_sequence': 2607, 'title': 'OMM Background Task', 'total_correct': 1, 'total_response_time': 1039, 'total_responses': 1, 'uniform_coordinates': 'yes', 'width': 1024}
{'SoundID': 101, 'acc': 100, 'accuracy': 100, 'average_response_time': 533, 'avg_rt': 533, 'background': 'black', 'bidi': 'no', 'canvas_backend': 'legacy', 'compensation': 0, 'coordinates': 'relative', 'correct': 1, 'correct_new_touch_response': 1, 'count_delay_1': 'NA', 'count_delay_1_1': 0, 'count_empty_sequence': 'NA', 'count_experiment': 0, 'count_logger': 0, 'count_make_task_infinite': 0, 'count_new_OMMConditioner': 'NA', 'count_new_OMMConditioner_1': 'NA', 'count_new_loop': 'NA', 'count_new_repeat_cycle': 'NA', 'count_new_touch_response': 0, 'count_request_job': 0, 'count_sound': 0, 'count_start_button': 0, 'count_test_loop': 0, 'count_trial_sequence': 0, 'cursor_roi': 'undefined', 'cursor_x': 0, 'cursor_y': 0, 'datetime': 'Tue Oct 26 10:40:58 2021', 'description': 'Simple touch then sound&reward - via server', 'disable_garbage_collection': 'yes', 'experiment_path': 'C:/Users/pbeli/Documents/GitHub/OMM', 'font_bold': 'no', 'font_family': 'mono', 'font_italic': 'no', 'font_size': 18, 'font_underline': 'no', 'foreground': 'white', 'form_clicks': 'no', 'fullscreen': 'no', 'height': 768, 'log_backend': 'omm', 'logfile': 'C:/Users/pbeli/Documents/GitHub/OMM\\omm.log', 'omm_block_index': None, 'omm_job_count': None, 'omm_job_id': None, 'omm_job_index': None, 'omm_job_index_in_block': None, 'opensesame_codename': 'Lentiform Loewenfeld', 'opensesame_version': '3.3.9', 'response': 11, 'response_new_touch_response': 11, 'response_time': 533, 'response_time_new_touch_response': 533, 'round_decimals': 2, 'sound_buf_size': 1024, 'sound_channels': 2, 'sound_freq': 48000, 'sound_sample_size': -16, 'start': 'experiment', 'subject_nr': 0, 'subject_parity': 'even', 'time_delay_1': 'NA', 'time_delay_1_1': 8288, 'time_empty_sequence': 'NA', 'time_experiment': 7283, 'time_logger': 9788, 'time_make_task_infinite': 'NA', 'time_new_OMMConditioner': 7818, 'time_new_OMMConditioner_1': 8287, 'time_new_loop': 'NA', 'time_new_repeat_cycle': 'NA', 'time_new_touch_response': 7284, 'time_request_job': 7283, 'time_sound': 7818, 'time_start_button': 7284, 'time_test_loop': 'NA', 'time_trial_sequence': 7283, 'title': 'OMM Background Task', 'total_correct': 1, 'total_response_time': 533, 'total_responses': 1, 'uniform_coordinates': 'yes', 'width': 1024}
{'SoundID': 101, 'acc': 100, 'accuracy': 100, 'average_response_time': 783, 'avg_rt': 783, 'background': 'black', 'bidi': 'no', 'canvas_backend': 'legacy', 'compensation': 0, 'coordinates': 'relative', 'correct': 1, 'correct_new_touch_response': 1, 'count_delay_1': 'NA', 'count_delay_1_1': 0, 'count_empty_sequence': 'NA', 'count_experiment': 0, 'count_logger': 0, 'count_make_task_infinite': 0, 'count_new_OMMConditioner': 'NA', 'count_new_OMMConditioner_1': 'NA', 'count_new_loop': 'NA', 'count_new_repeat_cycle': 'NA', 'count_new_touch_response': 0, 'count_request_job': 0, 'count_sound': 0, 'count_start_button': 0, 'count_test_loop': 0, 'count_trial_sequence': 0, 'cursor_roi': 'undefined', 'cursor_x': 1, 'cursor_y': -1, 'datetime': 'Tue Oct 26 10:43:56 2021', 'description': 'Simple touch then sound&reward - via server', 'disable_garbage_collection': 'yes', 'experiment_path': 'C:/Users/pbeli/Documents/GitHub/OMM', 'font_bold': 'no', 'font_family': 'mono', 'font_italic': 'no', 'font_size': 18, 'font_underline': 'no', 'foreground': 'white', 'form_clicks': 'no', 'fullscreen': 'no', 'height': 768, 'log_backend': 'omm', 'logfile': 'C:/Users/pbeli/Documents/GitHub/OMM\\omm.log', 'omm_block_index': None, 'omm_job_count': None, 'omm_job_id': None, 'omm_job_index': None, 'omm_job_index_in_block': None, 'opensesame_codename': 'Lentiform Loewenfeld', 'opensesame_version': '3.3.9', 'response': 7, 'response_new_touch_response': 7, 'response_time': 783, 'response_time_new_touch_response': 783, 'round_decimals': 2, 'sound_buf_size': 1024, 'sound_channels': 2, 'sound_freq': 48000, 'sound_sample_size': -16, 'start': 'experiment', 'subject_nr': 0, 'subject_parity': 'even', 'time_delay_1': 'NA', 'time_delay_1_1': 5192, 'time_empty_sequence': 'NA', 'time_experiment': 3950, 'time_logger': 6692, 'time_make_task_infinite': 'NA', 'time_new_OMMConditioner': 4734, 'time_new_OMMConditioner_1': 5191, 'time_new_loop': 'NA', 'time_new_repeat_cycle': 'NA', 'time_new_touch_response': 3951, 'time_request_job': 3950, 'time_sound': 4735, 'time_start_button': 3951, 'time_test_loop': 'NA', 'time_trial_sequence': 3950, 'title': 'OMM Background Task', 'total_correct': 1, 'total_response_time': 783, 'total_responses': 1, 'uniform_coordinates': 'yes', 'width': 1024}
{'SoundID': 101, 'acc': 100, 'accuracy': 100, 'average_response_time': 580, 'avg_rt': 580, 'background': 'black', 'bidi': 'no', 'canvas_backend': 'legacy', 'compensation': 0, 'coordinates': 'relative', 'correct': 1, 'correct_new_touch_response': 1, 'count_delay_1': 'NA', 'count_delay_1_1': 0, 'count_empty_sequence': 'NA', 'count_experiment': 0, 'count_logger': 0, 'count_make_task_infinite': 0, 'count_new_OMMConditioner': 'NA', 'count_new_OMMConditioner_1': 'NA', 'count_new_loop': 'NA', 'count_new_repeat_cycle': 'NA', 'count_new_touch_response': 0, 'count_request_job': 0, 'count_sound': 0, 'count_start_button': 0, 'count_test_loop': 0, 'count_trial_sequence': 0, 'cursor_roi': 'undefined', 'cursor_x': 0, 'cursor_y': 0, 'datetime': 'Tue Oct 26 10:44:02 2021', 'description': 'Simple touch then sound&reward - via server', 'disable_garbage_collection': 'yes', 'experiment_path': 'C:/Users/pbeli/Documents/GitHub/OMM', 'font_bold': 'no', 'font_family': 'mono', 'font_italic': 'no', 'font_size': 18, 'font_underline': 'no', 'foreground': 'white', 'form_clicks': 'no', 'fullscreen': 'no', 'height': 768, 'log_backend': 'omm', 'logfile': 'C:/Users/pbeli/Documents/GitHub/OMM\\omm.log', 'omm_block_index': None, 'omm_job_count': None, 'omm_job_id': None, 'omm_job_index': None, 'omm_job_index_in_block': None, 'opensesame_codename': 'Lentiform Loewenfeld', 'opensesame_version': '3.3.9', 'response': 11, 'response_new_touch_response': 11, 'response_time': 580, 'response_time_new_touch_response': 580, 'round_decimals': 2, 'sound_buf_size': 1024, 'sound_channels': 2, 'sound_freq': 48000, 'sound_sample_size': -16, 'start': 'experiment', 'subject_nr': 0, 'subject_parity': 'even', 'time_delay_1': 'NA', 'time_delay_1_1': 11056, 'time_empty_sequence': 'NA', 'time_experiment': 10026, 'time_logger': 12556, 'time_make_task_infinite': 'NA', 'time_new_OMMConditioner': 10607, 'time_new_OMMConditioner_1': 11055, 'time_new_loop': 'NA', 'time_new_repeat_cycle': 'NA', 'time_new_touch_response': 10027, 'time_request_job': 10026, 'time_sound': 10607, 'time_start_button': 10027, 'time_test_loop': 'NA', 'time_trial_sequence': 10026, 'title': 'OMM Background Task', 'total_correct': 1, 'total_response_time': 580, 'total_responses': 1, 'uniform_coordinates': 'yes', 'width': 1024}
{'SoundID': 101, 'acc': 100, 'accuracy': 100, 'average_response_time': 1436, 'avg_rt': 1436, 'background': 'black', 'bidi': 'no', 'canvas_backend': 'legacy', 'compensation': 0, 'coordinates': 'relative', 'correct': 1, 'correct_new_touch_response': 1, 'count_delay_1': 'NA', 'count_delay_1_1': 0, 'count_empty_sequence': 'NA', 'count_experiment': 0, 'count_logger': 0, 'count_make_task_infinite': 0, 'count_new_OMMConditioner': 'NA', 'count_new_OMMConditioner_1': 'NA', 'count_new_loop': 'NA', 'count_new_repeat_cycle': 'NA', 'count_new_touch_response': 0, 'count_request_job': 0, 'count_sound': 0, 'count_start_button': 0, 'count_test_loop': 0, 'count_trial_sequence': 0, 'cursor_roi': 'undefined', 'cursor_x': 0, 'cursor_y': 0, 'datetime': 'Tue Oct 26 10:45:05 2021', 'description': 'Simple touch then sound&reward - via server', 'disable_garbage_collection': 'yes', 'experiment_path': 'C:/Users/pbeli/Documents/GitHub/OMM', 'font_bold': 'no', 'font_family': 'mono', 'font_italic': 'no', 'font_size': 18, 'font_underline': 'no', 'foreground': 'white', 'form_clicks': 'no', 'fullscreen': 'no', 'height': 768, 'log_backend': 'omm', 'logfile': 'C:/Users/pbeli/Documents/GitHub/OMM\\omm.log', 'omm_block_index': None, 'omm_job_count': None, 'omm_job_id': None, 'omm_job_index': None, 'omm_job_index_in_block': None, 'opensesame_codename': 'Lentiform Loewenfeld', 'opensesame_version': '3.3.9', 'response': 11, 'response_new_touch_response': 11, 'response_time': 1436, 'response_time_new_touch_response': 1436, 'round_decimals': 2, 'sound_buf_size': 1024, 'sound_channels': 2, 'sound_freq': 48000, 'sound_sample_size': -16, 'start': 'experiment', 'subject_nr': 0, 'subject_parity': 'even', 'time_delay_1': 'NA', 'time_delay_1_1': 4899, 'time_empty_sequence': 'NA', 'time_experiment': 2999, 'time_logger': 6399, 'time_make_task_infinite': 'NA', 'time_new_OMMConditioner': 4437, 'time_new_OMMConditioner_1': 4898, 'time_new_loop': 'NA', 'time_new_repeat_cycle': 'NA', 'time_new_touch_response': 3000, 'time_request_job': 2999, 'time_sound': 4437, 'time_start_button': 3000, 'time_test_loop': 'NA', 'time_trial_sequence': 2999, 'title': 'OMM Background Task', 'total_correct': 1, 'total_response_time': 1436, 'total_responses': 1, 'uniform_coordinates': 'yes', 'width': 1024}
{'SoundID': 101, 'acc': 100, 'accuracy': 100, 'average_response_time': 629, 'avg_rt': 629, 'background': 'black', 'bidi': 'no', 'canvas_backend': 'legacy', 'compensation': 0, 'coordinates': 'relative', 'correct': 1, 'correct_new_touch_response': 1, 'count_delay_1': 'NA', 'count_delay_1_1': 0, 'count_empty_sequence': 'NA', 'count_experiment': 0, 'count_logger': 0, 'count_make_task_infinite': 0, 'count_new_OMMConditioner': 'NA', 'count_new_OMMConditioner_1': 'NA', 'count_new_loop': 'NA', 'count_new_repeat_cycle': 'NA', 'count_new_touch_response': 0, 'count_request_job': 0, 'count_sound': 0, 'count_start_button': 0, 'count_test_loop': 0, 'count_trial_sequence': 0, 'cursor_roi': 'undefined', 'cursor_x': -1, 'cursor_y': 0, 'datetime': 'Tue Oct 26 10:45:10 2021', 'description': 'Simple touch then sound&reward - via server', 'disable_garbage_collection': 'yes', 'experiment_path': 'C:/Users/pbeli/Documents/GitHub/OMM', 'font_bold': 'no', 'font_family': 'mono', 'font_italic': 'no', 'font_size': 18, 'font_underline': 'no', 'foreground': 'white', 'form_clicks': 'no', 'fullscreen': 'no', 'height': 768, 'log_backend': 'omm', 'logfile': 'C:/Users/pbeli/Documents/GitHub/OMM\\omm.log', 'omm_block_index': None, 'omm_job_count': None, 'omm_job_id': None, 'omm_job_index': None, 'omm_job_index_in_block': None, 'opensesame_codename': 'Lentiform Loewenfeld', 'opensesame_version': '3.3.9', 'response': 10, 'response_new_touch_response': 10, 'response_time': 629, 'response_time_new_touch_response': 629, 'round_decimals': 2, 'sound_buf_size': 1024, 'sound_channels': 2, 'sound_freq': 48000, 'sound_sample_size': -16, 'start': 'experiment', 'subject_nr': 0, 'subject_parity': 'even', 'time_delay_1': 'NA', 'time_delay_1_1': 9223, 'time_empty_sequence': 'NA', 'time_experiment': 8137, 'time_logger': 10723, 'time_make_task_infinite': 'NA', 'time_new_OMMConditioner': 8769, 'time_new_OMMConditioner_1': 9222, 'time_new_loop': 'NA', 'time_new_repeat_cycle': 'NA', 'time_new_touch_response': 8139, 'time_request_job': 8138, 'time_sound': 8769, 'time_start_button': 8139, 'time_test_loop': 'NA', 'time_trial_sequence': 8138, 'title': 'OMM Background Task', 'total_correct': 1, 'total_response_time': 629, 'total_responses': 1, 'uniform_coordinates': 'yes', 'width': 1024}
{'SoundID': 101, 'acc': 0, 'accuracy': 0, 'average_response_time': 850, 'avg_rt': 850, 'background': 'black', 'bidi': 'no', 'canvas_backend': 'legacy', 'compensation': 0, 'coordinates': 'relative', 'correct': 0, 'correct_new_touch_response': 0, 'count_delay_1': 'NA', 'count_delay_1_1': 0, 'count_empty_sequence': 'NA', 'count_experiment': 0, 'count_logger': 0, 'count_make_task_infinite': 0, 'count_new_OMMConditioner': 'NA', 'count_new_OMMConditioner_1': 'NA', 'count_new_loop': 'NA', 'count_new_repeat_cycle': 'NA', 'count_new_touch_response': 0, 'count_request_job': 0, 'count_sound': 0, 'count_start_button': 0, 'count_test_loop': 0, 'count_trial_sequence': 0, 'cursor_roi': 'undefined', 'cursor_x': 174, 'cursor_y': -283, 'datetime': 'Tue Oct 26 10:45:14 2021', 'description': 'Simple touch then sound&reward - via server', 'disable_garbage_collection': 'yes', 'experiment_path': 'C:/Users/pbeli/Documents/GitHub/OMM', 'font_bold': 'no', 'font_family': 'mono', 'font_italic': 'no', 'font_size': 18, 'font_underline': 'no', 'foreground': 'white', 'form_clicks': 'no', 'fullscreen': 'no', 'height': 768, 'log_backend': 'omm', 'logfile': 'C:/Users/pbeli/Documents/GitHub/OMM\\omm.log', 'omm_block_index': None, 'omm_job_count': None, 'omm_job_id': None, 'omm_job_index': None, 'omm_job_index_in_block': None, 'opensesame_codename': 'Lentiform Loewenfeld', 'opensesame_version': '3.3.9', 'response': 3, 'response_new_touch_response': 3, 'response_time': 850, 'response_time_new_touch_response': 850, 'round_decimals': 2, 'sound_buf_size': 1024, 'sound_channels': 2, 'sound_freq': 48000, 'sound_sample_size': -16, 'start': 'experiment', 'subject_nr': 0, 'subject_parity': 'even', 'time_delay_1': 'NA', 'time_delay_1_1': 'NA', 'time_empty_sequence': 'NA', 'time_experiment': 11945, 'time_logger': 12797, 'time_make_task_infinite': 'NA', 'time_new_OMMConditioner': 'NA', 'time_new_OMMConditioner_1': 'NA', 'time_new_loop': 'NA', 'time_new_repeat_cycle': 'NA', 'time_new_touch_response': 11946, 'time_request_job': 11945, 'time_sound': 'NA', 'time_start_button': 11946, 'time_test_loop': 'NA', 'time_trial_sequence': 11945, 'title': 'OMM Background Task', 'total_correct': 0, 'total_response_time': 850, 'total_responses': 1, 'uniform_coordinates': 'yes', 'width': 1024}
{'SoundID': 101, 'acc': 100, 'accuracy': 100, 'average_response_time': 673, 'avg_rt': 673, 'background': 'black', 'bidi': 'no', 'canvas_backend': 'legacy', 'compensation': 0, 'coordinates': 'relative', 'correct': 1, 'correct_new_touch_response': 1, 'count_delay_1': 'NA', 'count_delay_1_1': 0, 'count_empty_sequence': 'NA', 'count_experiment': 0, 'count_logger': 0, 'count_make_task_infinite': 0, 'count_new_OMMConditioner': 'NA', 'count_new_OMMConditioner_1': 'NA', 'count_new_loop': 'NA', 'count_new_repeat_cycle': 'NA', 'count_new_touch_response': 0, 'count_request_job': 0, 'count_sound': 0, 'count_start_button': 0, 'count_test_loop': 0, 'count_trial_sequence': 0, 'cursor_roi': 'undefined', 'cursor_x': 0, 'cursor_y': 0, 'datetime': 'Tue Oct 26 10:45:22 2021', 'description': 'Simple touch then sound&reward - via server', 'disable_garbage_collection': 'yes', 'experiment_path': 'C:/Users/pbeli/Documents/GitHub/OMM', 'font_bold': 'no', 'font_family': 'mono', 'font_italic': 'no', 'font_size': 18, 'font_underline': 'no', 'foreground': 'white', 'form_clicks': 'no', 'fullscreen': 'no', 'height': 768, 'log_backend': 'omm', 'logfile': 'C:/Users/pbeli/Documents/GitHub/OMM\\omm.log', 'omm_block_index': None, 'omm_job_count': None, 'omm_job_id': None, 'omm_job_index': None, 'omm_job_index_in_block': None, 'opensesame_codename': 'Lentiform Loewenfeld', 'opensesame_version': '3.3.9', 'response': 11, 'response_new_touch_response': 11, 'response_time': 673, 'response_time_new_touch_response': 673, 'round_decimals': 2, 'sound_buf_size': 1024, 'sound_channels': 2, 'sound_freq': 48000, 'sound_sample_size': -16, 'start': 'experiment', 'subject_nr': 0, 'subject_parity': 'even', 'time_delay_1': 'NA', 'time_delay_1_1': 20843, 'time_empty_sequence': 'NA', 'time_experiment': 19712, 'time_logger': 22343, 'time_make_task_infinite': 'NA', 'time_new_OMMConditioner': 20386, 'time_new_OMMConditioner_1': 20842, 'time_new_loop': 'NA', 'time_new_repeat_cycle': 'NA', 'time_new_touch_response': 19713, 'time_request_job': 19712, 'time_sound': 20387, 'time_start_button': 19713, 'time_test_loop': 'NA', 'time_trial_sequence': 19712, 'title': 'OMM Background Task', 'total_correct': 1, 'total_response_time': 673, 'total_responses': 1, 'uniform_coordinates': 'yes', 'width': 1024}
{'SoundID': 101, 'acc': 0, 'accuracy': 0, 'average_response_time': 1445, 'avg_rt': 1445, 'background': 'black', 'bidi': 'no', 'canvas_backend': 'legacy', 'compensation': 0, 'coordinates': 'relative', 'correct': 0, 'correct_new_touch_response': 0, 'count_delay_1': 'NA', 'count_delay_1_1': 0, 'count_empty_sequence': 'NA', 'count_experiment': 0, 'count_logger': 0, 'count_make_task_infinite': 0, 'count_new_OMMConditioner': 'NA', 'count_new_OMMConditioner_1': 'NA', 'count_new_loop': 'NA', 'count_new_repeat_cycle': 'NA', 'count_new_touch_response': 0, 'count_request_job': 0, 'count_sound': 0, 'count_start_button': 0, 'count_test_loop': 0, 'count_trial_sequence': 0, 'cursor_roi': 'undefined', 'cursor_x': -13, 'cursor_y': -257, 'datetime': 'Tue Oct 26 10:45:26 2021', 'description': 'Simple touch then sound&reward - via server', 'disable_garbage_collection': 'yes', 'experiment_path': 'C:/Users/pbeli/Documents/GitHub/OMM', 'font_bold': 'no', 'font_family': 'mono', 'font_italic': 'no', 'font_size': 18, 'font_underline': 'no', 'foreground': 'white', 'form_clicks': 'no', 'fullscreen': 'no', 'height': 768, 'log_backend': 'omm', 'logfile': 'C:/Users/pbeli/Documents/GitHub/OMM\\omm.log', 'omm_block_index': None, 'omm_job_count': None, 'omm_job_id': None, 'omm_job_index': None, 'omm_job_index_in_block': None, 'opensesame_codename': 'Lentiform Loewenfeld', 'opensesame_version': '3.3.9', 'response': 2, 'response_new_touch_response': 2, 'response_time': 1445, 'response_time_new_touch_response': 1445, 'round_decimals': 2, 'sound_buf_size': 1024, 'sound_channels': 2, 'sound_freq': 48000, 'sound_sample_size': -16, 'start': 'experiment', 'subject_nr': 0, 'subject_parity': 'even', 'time_delay_1': 'NA', 'time_delay_1_1': 'NA', 'time_empty_sequence': 'NA', 'time_experiment': 23440, 'time_logger': 24886, 'time_make_task_infinite': 'NA', 'time_new_OMMConditioner': 'NA', 'time_new_OMMConditioner_1': 'NA', 'time_new_loop': 'NA', 'time_new_repeat_cycle': 'NA', 'time_new_touch_response': 23441, 'time_request_job': 23440, 'time_sound': 'NA', 'time_start_button': 23441, 'time_test_loop': 'NA', 'time_trial_sequence': 23440, 'title': 'OMM Background Task', 'total_correct': 0, 'total_response_time': 1445, 'total_responses': 1, 'uniform_coordinates': 'yes', 'width': 1024}
{'SoundID': 101, 'acc': 100, 'accuracy': 100, 'average_response_time': 952, 'avg_rt': 952, 'background': 'black', 'bidi': 'no', 'canvas_backend': 'legacy', 'compensation': 0, 'coordinates': 'relative', 'correct': 1, 'correct_new_touch_response': 1, 'count_delay_1': 'NA', 'count_delay_1_1': 0, 'count_empty_sequence': 'NA', 'count_experiment': 0, 'count_logger': 0, 'count_make_task_infinite': 0, 'count_new_OMMConditioner': 'NA', 'count_new_OMMConditioner_1': 'NA', 'count_new_loop': 'NA', 'count_new_repeat_cycle': 'NA', 'count_new_touch_response': 0, 'count_request_job': 0, 'count_sound': 0, 'count_start_button': 0, 'count_test_loop': 0, 'count_trial_sequence': 0, 'cursor_roi': 'undefined', 'cursor_x': 29, 'cursor_y': -85, 'datetime': 'Tue Oct 26 10:45:29 2021', 'description': 'Simple touch then sound&reward - via server', 'disable_garbage_collection': 'yes', 'experiment_path': 'C:/Users/pbeli/Documents/GitHub/OMM', 'font_bold': 'no', 'font_family': 'mono', 'font_italic': 'no', 'font_size': 18, 'font_underline': 'no', 'foreground': 'white', 'form_clicks': 'no', 'fullscreen': 'no', 'height': 768, 'log_backend': 'omm', 'logfile': 'C:/Users/pbeli/Documents/GitHub/OMM\\omm.log', 'omm_block_index': None, 'omm_job_count': None, 'omm_job_id': None, 'omm_job_index': None, 'omm_job_index_in_block': None, 'opensesame_codename': 'Lentiform Loewenfeld', 'opensesame_version': '3.3.9', 'response': 7, 'response_new_touch_response': 7, 'response_time': 952, 'response_time_new_touch_response': 952, 'round_decimals': 2, 'sound_buf_size': 1024, 'sound_channels': 2, 'sound_freq': 48000, 'sound_sample_size': -16, 'start': 'experiment', 'subject_nr': 0, 'subject_parity': 'even', 'time_delay_1': 'NA', 'time_delay_1_1': 27728, 'time_empty_sequence': 'NA', 'time_experiment': 26310, 'time_logger': 29228, 'time_make_task_infinite': 'NA', 'time_new_OMMConditioner': 27264, 'time_new_OMMConditioner_1': 27727, 'time_new_loop': 'NA', 'time_new_repeat_cycle': 'NA', 'time_new_touch_response': 26312, 'time_request_job': 26311, 'time_sound': 27264, 'time_start_button': 26312, 'time_test_loop': 'NA', 'time_trial_sequence': 26311, 'title': 'OMM Background Task', 'total_correct': 1, 'total_response_time': 952, 'total_responses': 1, 'uniform_coordinates': 'yes', 'width': 1024}
{'acc': 50, 'accuracy': 50, 'average_response_time': 1831.5, 'avg_rt': 1831.5, 'background': 'black', 'bidi': 'no', 'canvas_backend': 'legacy', 'compensation': 0, 'coordinates': 'relative', 'correct': 1, 'correct_new_touch_response': 0, 'correct_response': 2, 'correct_touch_response': 1, 'count_blank': 0, 'count_circle_sound': 0, 'count_circle_target': 0, 'count_cross_sound': 0, 'count_cross_target': 0, 'count_delay': 0, 'count_delay_1': 0, 'count_empty_sequence': 'NA', 'count_error_sound': 0, 'count_experiment': 0, 'count_logger': 0, 'count_make_task_infinite': 0, 'count_new_touch_response': 0, 'count_request_job': 0, 'count_response_display': 0, 'count_reward_sound': 0, 'count_start_button': 0, 'count_test_loop': 0, 'count_touch_response': 0, 'count_trial_sequence': 0, 'cursor_roi': 'undefined', 'cursor_x': 511, 'cursor_y': -384, 'datetime': 'Tue Oct 26 10:47:14 2021', 'description': 'match-to-sample task via OMM server', 'disable_garbage_collection': 'yes', 'experiment_path': 'C:/Users/pbeli/Documents/GitHub/OMM', 'font_bold': 'no', 'font_family': 'mono', 'font_italic': 'no', 'font_size': 18, 'font_underline': 'no', 'foreground': 'white', 'form_clicks': 'no', 'fullscreen': 'no', 'height': 768, 'log_backend': 'omm', 'logfile': 'C:/Users/pbeli/Documents/GitHub/OMM\\omm.log', 'omm_block_index': None, 'omm_job_count': None, 'omm_job_id': None, 'omm_job_index': None, 'omm_job_index_in_block': None, 'opensesame_codename': 'Lentiform Loewenfeld', 'opensesame_version': '3.3.9', 'response': 2, 'response_new_touch_response': 2, 'response_time': 1121, 'response_time_new_touch_response': 2542, 'response_time_touch_response': 1121, 'response_touch_response': 2, 'round_decimals': 2, 'sound_buf_size': 1024, 'sound_channels': 2, 'sound_freq': 48000, 'sound_sample_size': -16, 'start': 'experiment', 'subject_nr': 0, 'subject_parity': 'even', 'target': 'circle', 'time_blank': 9808, 'time_circle_sound': 7679, 'time_circle_target': 7684, 'time_cross_sound': 'NA', 'time_cross_target': 'NA', 'time_delay': 8185, 'time_delay_1': 6179, 'time_empty_sequence': 'NA', 'time_error_sound': 'NA', 'time_experiment': 3634, 'time_logger': 9908, 'time_make_task_infinite': 'NA', 'time_new_touch_response': 3635, 'time_request_job': 3634, 'time_response_display': 8686, 'time_reward_sound': 9808, 'time_start_button': 3635, 'time_test_loop': 'NA', 'time_touch_response': 8686, 'time_trial_sequence': 3634, 'title': 'OMM Match to sample - test 6', 'total_correct': 1, 'total_response_time': 3663, 'total_responses': 2, 'uniform_coordinates': 'yes', 'width': 1024}
{'acc': 50, 'accuracy': 50, 'average_response_time': 2185.5, 'avg_rt': 2185.5, 'background': 'black', 'bidi': 'no', 'canvas_backend': 'legacy', 'compensation': 0, 'coordinates': 'relative', 'correct': 1, 'correct_new_touch_response': 0, 'correct_response': 2, 'correct_touch_response': 1, 'count_blank': 0, 'count_circle_sound': 0, 'count_circle_target': 0, 'count_cross_sound': 0, 'count_cross_target': 0, 'count_delay': 0, 'count_delay_1': 0, 'count_empty_sequence': 'NA', 'count_error_sound': 0, 'count_experiment': 0, 'count_logger': 0, 'count_make_task_infinite': 0, 'count_new_touch_response': 0, 'count_request_job': 0, 'count_response_display': 0, 'count_reward_sound': 0, 'count_start_button': 0, 'count_test_loop': 0, 'count_touch_response': 0, 'count_trial_sequence': 0, 'cursor_roi': 'undefined', 'cursor_x': 492, 'cursor_y': 52, 'datetime': 'Tue Oct 26 11:08:35 2021', 'description': 'match-to-sample task via OMM server', 'disable_garbage_collection': 'yes', 'experiment_path': 'C:/Users/pbeli/Documents/GitHub/OMM', 'font_bold': 'no', 'font_family': 'mono', 'font_italic': 'no', 'font_size': 18, 'font_underline': 'no', 'foreground': 'white', 'form_clicks': 'no', 'fullscreen': 'no', 'height': 768, 'log_backend': 'omm', 'logfile': 'C:/Users/pbeli/Documents/GitHub/OMM\\omm.log', 'omm_block_index': None, 'omm_job_count': None, 'omm_job_id': None, 'omm_job_index': None, 'omm_job_index_in_block': None, 'opensesame_codename': 'Lentiform Loewenfeld', 'opensesame_version': '3.3.9', 'response': 2, 'response_new_touch_response': 8, 'response_time': 1072, 'response_time_new_touch_response': 3299, 'response_time_touch_response': 1072, 'response_touch_response': 2, 'round_decimals': 2, 'sound_buf_size': 1024, 'sound_channels': 2, 'sound_freq': 48000, 'sound_sample_size': -16, 'start': 'experiment', 'subject_nr': 0, 'subject_parity': 'even', 'target': 'circle', 'time_blank': 10795, 'time_circle_sound': 8718, 'time_circle_target': 8720, 'time_cross_sound': 'NA', 'time_cross_target': 'NA', 'time_delay': 9221, 'time_delay_1': 7218, 'time_empty_sequence': 'NA', 'time_error_sound': 'NA', 'time_experiment': 3915, 'time_logger': 10896, 'time_make_task_infinite': 'NA', 'time_new_touch_response': 3917, 'time_request_job': 3916, 'time_response_display': 9722, 'time_reward_sound': 10796, 'time_start_button': 3917, 'time_test_loop': 'NA', 'time_touch_response': 9722, 'time_trial_sequence': 3916, 'title': 'OMM Match to sample - test 6', 'total_correct': 1, 'total_response_time': 4371, 'total_responses': 2, 'uniform_coordinates': 'yes', 'width': 1024}
{'acc': 50, 'accuracy': 50, 'average_response_time': 1950, 'avg_rt': 1950, 'background': 'black', 'bidi': 'no', 'canvas_backend': 'legacy', 'compensation': 0, 'coordinates': 'relative', 'correct': 1, 'correct_new_touch_response': 0, 'correct_response': 2, 'correct_touch_response': 1, 'count_blank': 0, 'count_circle_sound': 0, 'count_circle_target': 0, 'count_cross_sound': 0, 'count_cross_target': 0, 'count_delay': 0, 'count_delay_1': 0, 'count_empty_sequence': 'NA', 'count_error_sound': 0, 'count_experiment': 0, 'count_logger': 0, 'count_make_task_infinite': 0, 'count_new_touch_response': 0, 'count_request_job': 0, 'count_response_display': 0, 'count_reward_sound': 0, 'count_start_button': 0, 'count_test_loop': 0, 'count_touch_response': 0, 'count_trial_sequence': 0, 'cursor_roi': 'undefined', 'cursor_x': 511, 'cursor_y': -295, 'datetime': 'Tue Oct 26 11:10:30 2021', 'description': 'match-to-sample task via OMM server', 'disable_garbage_collection': 'yes', 'experiment_path': 'C:/Users/pbeli/Documents/GitHub/OMM', 'font_bold': 'no', 'font_family': 'mono', 'font_italic': 'no', 'font_size': 18, 'font_underline': 'no', 'foreground': 'white', 'form_clicks': 'no', 'fullscreen': 'no', 'height': 768, 'log_backend': 'omm', 'logfile': 'C:/Users/pbeli/Documents/GitHub/OMM\\omm.log', 'omm_block_index': None, 'omm_job_count': None, 'omm_job_id': None, 'omm_job_index': None, 'omm_job_index_in_block': None, 'opensesame_codename': 'Lentiform Loewenfeld', 'opensesame_version': '3.3.9', 'response': 2, 'response_new_touch_response': 3, 'response_time': 491, 'response_time_new_touch_response': 3409, 'response_time_touch_response': 491, 'response_touch_response': 2, 'round_decimals': 2, 'sound_buf_size': 1024, 'sound_channels': 2, 'sound_freq': 48000, 'sound_sample_size': -16, 'start': 'experiment', 'subject_nr': 0, 'subject_parity': 'even', 'target': 'circle', 'time_blank': 9720, 'time_circle_sound': 8220, 'time_circle_target': 8221, 'time_cross_sound': 'NA', 'time_cross_target': 'NA', 'time_delay': 8722, 'time_delay_1': 6720, 'time_empty_sequence': 'NA', 'time_error_sound': 'NA', 'time_experiment': 3309, 'time_logger': 9820, 'time_make_task_infinite': 'NA', 'time_new_touch_response': 3310, 'time_request_job': 3309, 'time_response_display': 9227, 'time_reward_sound': 9720, 'time_start_button': 3310, 'time_test_loop': 'NA', 'time_touch_response': 9228, 'time_trial_sequence': 3309, 'title': 'OMM Match to sample - test 6', 'total_correct': 1, 'total_response_time': 3900, 'total_responses': 2, 'uniform_coordinates': 'yes', 'width': 1024}
{'SoundID': 101, 'acc': 100, 'accuracy': 100, 'average_response_time': 7226, 'avg_rt': 7226, 'background': 'black', 'bidi': 'no', 'canvas_backend': 'legacy', 'compensation': 0, 'coordinates': 'relative', 'correct': 1, 'correct_new_touch_response': 1, 'count_delay_1': 'NA', 'count_delay_1_1': 0, 'count_empty_sequence': 'NA', 'count_experiment': 0, 'count_logger': 0, 'count_make_task_infinite': 0, 'count_new_OMMConditioner': 'NA', 'count_new_OMMConditioner_1': 'NA', 'count_new_loop': 'NA', 'count_new_repeat_cycle': 'NA', 'count_new_touch_response': 0, 'count_request_job': 0, 'count_sound': 0, 'count_start_button': 0, 'count_test_loop': 0, 'count_trial_sequence': 0, 'cursor_roi': 'undefined', 'cursor_x': -28, 'cursor_y': -6, 'datetime': 'Tue Oct 26 11:29:42 2021', 'description': 'Simple touch then sound&reward - via server', 'disable_garbage_collection': 'yes', 'experiment_path': 'C:/Users/pbeli/Documents/GitHub/OMM', 'font_bold': 'no', 'font_family': 'mono', 'font_italic': 'no', 'font_size': 18, 'font_underline': 'no', 'foreground': 'white', 'form_clicks': 'no', 'fullscreen': 'no', 'height': 768, 'log_backend': 'omm', 'logfile': 'C:/Users/pbeli/Documents/GitHub/OMM\\omm.log', 'omm_block_index': None, 'omm_job_count': None, 'omm_job_id': None, 'omm_job_index': None, 'omm_job_index_in_block': None, 'opensesame_codename': 'Lentiform Loewenfeld', 'opensesame_version': '3.3.9', 'response': 6, 'response_new_touch_response': 6, 'response_time': 7226, 'response_time_new_touch_response': 7226, 'round_decimals': 2, 'sound_buf_size': 1024, 'sound_channels': 2, 'sound_freq': 48000, 'sound_sample_size': -16, 'start': 'experiment', 'subject_nr': 0, 'subject_parity': 'even', 'time_delay_1': 'NA', 'time_delay_1_1': 16389, 'time_empty_sequence': 'NA', 'time_experiment': 8714, 'time_logger': 17889, 'time_make_task_infinite': 'NA', 'time_new_OMMConditioner': 15942, 'time_new_OMMConditioner_1': 16388, 'time_new_loop': 'NA', 'time_new_repeat_cycle': 'NA', 'time_new_touch_response': 8716, 'time_request_job': 8714, 'time_sound': 15942, 'time_start_button': 8716, 'time_test_loop': 'NA', 'time_trial_sequence': 8714, 'title': 'OMM Background Task', 'total_correct': 1, 'total_response_time': 7226, 'total_responses': 1, 'uniform_coordinates': 'yes', 'width': 1024}
{'SoundID': 101, 'acc': 100, 'accuracy': 100, 'average_response_time': 1818, 'avg_rt': 1818, 'background': 'black', 'bidi': 'no', 'canvas_backend': 'legacy', 'compensation': 0, 'coordinates': 'relative', 'correct': 1, 'correct_new_touch_response': 1, 'count_delay_1': 'NA', 'count_delay_1_1': 0, 'count_empty_sequence': 'NA', 'count_experiment': 0, 'count_logger': 0, 'count_make_task_infinite': 0, 'count_new_OMMConditioner': 'NA', 'count_new_OMMConditioner_1': 'NA', 'count_new_loop': 'NA', 'count_new_repeat_cycle': 'NA', 'count_new_touch_response': 0, 'count_request_job': 0, 'count_sound': 0, 'count_start_button': 0, 'count_test_loop': 0, 'count_trial_sequence': 0, 'cursor_roi': 'undefined', 'cursor_x': 0, 'cursor_y': 0, 'datetime': 'Tue Oct 26 11:29:53 2021', 'description': 'Simple touch then sound&reward - via server', 'disable_garbage_collection': 'yes', 'experiment_path': 'C:/Users/pbeli/Documents/GitHub/OMM', 'font_bold': 'no', 'font_family': 'mono', 'font_italic': 'no', 'font_size': 18, 'font_underline': 'no', 'foreground': 'white', 'form_clicks': 'no', 'fullscreen': 'no', 'height': 768, 'log_backend': 'omm', 'logfile': 'C:/Users/pbeli/Documents/GitHub/OMM\\omm.log', 'omm_block_index': None, 'omm_job_count': None, 'omm_job_id': None, 'omm_job_index': None, 'omm_job_index_in_block': None, 'opensesame_codename': 'Lentiform Loewenfeld', 'opensesame_version': '3.3.9', 'response': 11, 'response_new_touch_response': 11, 'response_time': 1818, 'response_time_new_touch_response': 1818, 'round_decimals': 2, 'sound_buf_size': 1024, 'sound_channels': 2, 'sound_freq': 48000, 'sound_sample_size': -16, 'start': 'experiment', 'subject_nr': 0, 'subject_parity': 'even', 'time_delay_1': 'NA', 'time_delay_1_1': 22743, 'time_empty_sequence': 'NA', 'time_experiment': 20460, 'time_logger': 24243, 'time_make_task_infinite': 'NA', 'time_new_OMMConditioner': 22280, 'time_new_OMMConditioner_1': 22742, 'time_new_loop': 'NA', 'time_new_repeat_cycle': 'NA', 'time_new_touch_response': 20462, 'time_request_job': 20461, 'time_sound': 22281, 'time_start_button': 20462, 'time_test_loop': 'NA', 'time_trial_sequence': 20461, 'title': 'OMM Background Task', 'total_correct': 1, 'total_response_time': 1818, 'total_responses': 1, 'uniform_coordinates': 'yes', 'width': 1024}
{'SoundID': 101, 'acc': 100, 'accuracy': 100, 'average_response_time': 1041, 'avg_rt': 1041, 'background': 'black', 'bidi': 'no', 'canvas_backend': 'legacy', 'compensation': 0, 'coordinates': 'relative', 'correct': 1, 'correct_new_touch_response': 1, 'count_delay_1': 'NA', 'count_delay_1_1': 0, 'count_empty_sequence': 'NA', 'count_experiment': 0, 'count_logger': 0, 'count_make_task_infinite': 0, 'count_new_OMMConditioner': 'NA', 'count_new_OMMConditioner_1': 'NA', 'count_new_loop': 'NA', 'count_new_repeat_cycle': 'NA', 'count_new_touch_response': 0, 'count_request_job': 0, 'count_sound': 0, 'count_start_button': 0, 'count_test_loop': 0, 'count_trial_sequence': 0, 'cursor_roi': 'undefined', 'cursor_x': 0, 'cursor_y': 0, 'datetime': 'Tue Oct 26 11:30:00 2021', 'description': 'Simple touch then sound&reward - via server', 'disable_garbage_collection': 'yes', 'experiment_path': 'C:/Users/pbeli/Documents/GitHub/OMM', 'font_bold': 'no', 'font_family': 'mono', 'font_italic': 'no', 'font_size': 18, 'font_underline': 'no', 'foreground': 'white', 'form_clicks': 'no', 'fullscreen': 'no', 'height': 768, 'log_backend': 'omm', 'logfile': 'C:/Users/pbeli/Documents/GitHub/OMM\\omm.log', 'omm_block_index': None, 'omm_job_count': None, 'omm_job_id': None, 'omm_job_index': None, 'omm_job_index_in_block': None, 'opensesame_codename': 'Lentiform Loewenfeld', 'opensesame_version': '3.3.9', 'response': 11, 'response_new_touch_response': 11, 'response_time': 1041, 'response_time_new_touch_response': 1041, 'round_decimals': 2, 'sound_buf_size': 1024, 'sound_channels': 2, 'sound_freq': 48000, 'sound_sample_size': -16, 'start': 'experiment', 'subject_nr': 0, 'subject_parity': 'even', 'time_delay_1': 'NA', 'time_delay_1_1': 28257, 'time_empty_sequence': 'NA', 'time_experiment': 26750, 'time_logger': 29757, 'time_make_task_infinite': 'NA', 'time_new_OMMConditioner': 27792, 'time_new_OMMConditioner_1': 28257, 'time_new_loop': 'NA', 'time_new_repeat_cycle': 'NA', 'time_new_touch_response': 26751, 'time_request_job': 26750, 'time_sound': 27792, 'time_start_button': 26751, 'time_test_loop': 'NA', 'time_trial_sequence': 26750, 'title': 'OMM Background Task', 'total_correct': 1, 'total_response_time': 1041, 'total_responses': 1, 'uniform_coordinates': 'yes', 'width': 1024}
{'SoundID': 105, 'acc': 100, 'accuracy': 100, 'average_response_time': 955, 'avg_rt': 955, 'background': 'black', 'bidi': 'no', 'canvas_backend': 'legacy', 'compensation': 0, 'coordinates': 'relative', 'correct': 1, 'correct_new_touch_response': 1, 'count_delay_1': 'NA', 'count_delay_1_1': 0, 'count_experiment': 0, 'count_logger': 0, 'count_new_OMMConditioner': 'NA', 'count_new_OMMConditioner_1': 'NA', 'count_new_loop': 0, 'count_new_repeat_cycle': 0, 'count_new_touch_response': 0, 'count_sound': 0, 'count_start_button': 0, 'count_trial_sequence': 0, 'cursor_roi': 'undefined', 'cursor_x': 0, 'cursor_y': 0, 'datetime': 'Tue Oct 26 11:44:49 2021', 'description': 'Simple touch then sounds + reward', 'disable_garbage_collection': 'yes', 'experiment_path': 'C:/Users/pbeli/Documents/GitHub/OMM', 'font_bold': 'no', 'font_family': 'mono', 'font_italic': 'no', 'font_size': 18, 'font_underline': 'no', 'foreground': 'white', 'form_clicks': 'no', 'fullscreen': 'no', 'height': 768, 'live_row': 0, 'live_row_new_loop': 0, 'log_backend': 'omm', 'logfile': 'C:/Users/pbeli/Documents/GitHub/OMM\\omm.log', 'opensesame_codename': 'Lentiform Loewenfeld', 'opensesame_version': '3.3.9', 'repeat_cycle': 0, 'response': 11, 'response_new_touch_response': 11, 'response_time': 955, 'response_time_new_touch_response': 955, 'round_decimals': 2, 'sound_buf_size': 1024, 'sound_channels': 2, 'sound_freq': 48000, 'sound_sample_size': -16, 'start': 'experiment', 'subject_nr': 0, 'subject_parity': 'even', 'time_delay_1': 'NA', 'time_delay_1_1': 13741, 'time_experiment': 12225, 'time_logger': 15241, 'time_new_OMMConditioner': 13282, 'time_new_OMMConditioner_1': 13739, 'time_new_loop': 12225, 'time_new_repeat_cycle': 'NA', 'time_new_touch_response': 12327, 'time_sound': 13282, 'time_start_button': 12327, 'time_trial_sequence': 12326, 'title': 'Background Task 7', 'total_correct': 1, 'total_response_time': 955, 'total_responses': 1, 'uniform_coordinates': 'yes', 'width': 1024}
{'SoundID': 100, 'acc': 100, 'accuracy': 100, 'average_response_time': 1083, 'avg_rt': 1083, 'background': 'black', 'bidi': 'no', 'canvas_backend': 'legacy', 'compensation': 0, 'coordinates': 'relative', 'correct': 1, 'correct_new_touch_response': 1, 'count_delay_1': 'NA', 'count_delay_1_1': 0, 'count_empty_sequence': 'NA', 'count_experiment': 0, 'count_logger': 0, 'count_make_task_infinite': 0, 'count_new_OMMConditioner': 'NA', 'count_new_OMMConditioner_1': 'NA', 'count_new_loop': 'NA', 'count_new_repeat_cycle': 'NA', 'count_new_touch_response': 0, 'count_request_job': 0, 'count_sound': 0, 'count_start_button': 0, 'count_test_loop': 0, 'count_trial_sequence': 0, 'cursor_roi': 'undefined', 'cursor_x': 0, 'cursor_y': 0, 'datetime': 'Tue Oct 26 11:39:05 2021', 'description': 'Simple touch then sound&reward - via server', 'disable_garbage_collection': 'yes', 'experiment_path': 'C:/Users/pbeli/Documents/GitHub/OMM', 'font_bold': 'no', 'font_family': 'mono', 'font_italic': 'no', 'font_size': 18, 'font_underline': 'no', 'foreground': 'white', 'form_clicks': 'no', 'fullscreen': 'no', 'height': 768, 'log_backend': 'omm', 'logfile': 'C:\\Users\\pbeli\\AppData\\Local\\Temp\\omm.log', 'omm_block_index': 1, 'omm_job_count': 50, 'omm_job_id': 31, 'omm_job_index': 1, 'omm_job_index_in_block': 4, 'opensesame_codename': 'Lentiform Loewenfeld', 'opensesame_version': '3.3.9', 'response': 11, 'response_new_touch_response': 11, 'response_time': 1083, 'response_time_new_touch_response': 1083, 'round_decimals': 2, 'sound_buf_size': 1024, 'sound_channels': 2, 'sound_freq': 48000, 'sound_sample_size': -16, 'start': 'experiment', 'subject_nr': 0, 'subject_parity': 'even', 'time_delay_1': 'NA', 'time_delay_1_1': 12458, 'time_empty_sequence': 'NA', 'time_experiment': 10916, 'time_logger': 13958, 'time_make_task_infinite': 'NA', 'time_new_OMMConditioner': 12000, 'time_new_OMMConditioner_1': 12457, 'time_new_loop': 'NA', 'time_new_repeat_cycle': 'NA', 'time_new_touch_response': 10917, 'time_request_job': 10916, 'time_sound': 12000, 'time_start_button': 10917, 'time_test_loop': 'NA', 'time_trial_sequence': 10916, 'timestamp': '2021-10-26 09:47:03', 'title': 'OMM Background Task', 'total_correct': 1, 'total_response_time': 1083, 'total_responses': 1, 'uniform_coordinates': 'yes', 'width': 1024}
{'SoundID': 106, 'acc': 100, 'accuracy': 100, 'average_response_time': 571, 'avg_rt': 571, 'background': 'black', 'bidi': 'no', 'canvas_backend': 'legacy', 'compensation': 0, 'coordinates': 'relative', 'correct': 1, 'correct_new_touch_response': 1, 'count_delay_1': 'NA', 'count_delay_1_1': 0, 'count_empty_sequence': 'NA', 'count_experiment': 0, 'count_logger': 0, 'count_make_task_infinite': 0, 'count_new_OMMConditioner': 'NA', 'count_new_OMMConditioner_1': 'NA', 'count_new_loop': 'NA', 'count_new_repeat_cycle': 'NA', 'count_new_touch_response': 0, 'count_request_job': 0, 'count_sound': 0, 'count_start_button': 0, 'count_test_loop': 0, 'count_trial_sequence': 0, 'cursor_roi': 'undefined', 'cursor_x': 0, 'cursor_y': 0, 'datetime': 'Tue Oct 26 11:47:15 2021', 'description': 'Simple touch then sound&reward - via server', 'disable_garbage_collection': 'yes', 'experiment_path': 'C:/Users/pbeli/Documents/GitHub/OMM', 'font_bold': 'no', 'font_family': 'mono', 'font_italic': 'no', 'font_size': 18, 'font_underline': 'no', 'foreground': 'white', 'form_clicks': 'no', 'fullscreen': 'no', 'height': 768, 'log_backend': 'omm', 'logfile': 'C:/Users/pbeli/Documents/GitHub/OMM\\omm.log', 'omm_block_index': 1, 'omm_job_count': 50, 'omm_job_id': 37, 'omm_job_index': 7, 'omm_job_index_in_block': 5, 'opensesame_codename': 'Lentiform Loewenfeld', 'opensesame_version': '3.3.9', 'response': 11, 'response_new_touch_response': 11, 'response_time': 571, 'response_time_new_touch_response': 571, 'round_decimals': 2, 'sound_buf_size': 1024, 'sound_channels': 2, 'sound_freq': 48000, 'sound_sample_size': -16, 'start': 'experiment', 'subject_nr': 0, 'subject_parity': 'even', 'time_delay_1': 'NA', 'time_delay_1_1': 21542, 'time_empty_sequence': 'NA', 'time_experiment': 20518, 'time_logger': 23042, 'time_make_task_infinite': 'NA', 'time_new_OMMConditioner': 21090, 'time_new_OMMConditioner_1': 21541, 'time_new_loop': 'NA', 'time_new_repeat_cycle': 'NA', 'time_new_touch_response': 20519, 'time_request_job': 20518, 'time_sound': 21090, 'time_start_button': 20519, 'time_test_loop': 'NA', 'time_trial_sequence': 20518, 'title': 'OMM Background Task', 'total_correct': 1, 'total_response_time': 571, 'total_responses': 1, 'uniform_coordinates': 'yes', 'width': 1024}
{'SoundID': 101, 'acc': 100, 'accuracy': 100, 'average_response_time': 1801, 'avg_rt': 1801, 'background': 'black', 'bidi': 'no', 'canvas_backend': 'legacy', 'compensation': 0, 'coordinates': 'relative', 'correct': 1, 'correct_new_touch_response': 1, 'count_delay_1': 'NA', 'count_delay_1_1': 0, 'count_empty_sequence': 'NA', 'count_experiment': 0, 'count_logger': 0, 'count_make_task_infinite': 0, 'count_new_OMMConditioner': 'NA', 'count_new_OMMConditioner_1': 'NA', 'count_new_loop': 'NA', 'count_new_repeat_cycle': 'NA', 'count_new_touch_response': 0, 'count_request_job': 0, 'count_sound': 0, 'count_start_button': 0, 'count_test_loop': 0, 'count_trial_sequence': 0, 'cursor_roi': 'undefined', 'cursor_x': 0, 'cursor_y': 0, 'datetime': 'Thu Oct 28 12:23:07 2021', 'description': 'Simple touch then sound&reward - via server', 'disable_garbage_collection': 'yes', 'experiment_path': 'C:/Users/pbeli/Documents/GitHub/OMM', 'font_bold': 'no', 'font_family': 'mono', 'font_italic': 'no', 'font_size': 18, 'font_underline': 'no', 'foreground': 'white', 'form_clicks': 'no', 'fullscreen': 'no', 'height': 768, 'log_backend': 'omm', 'logfile': 'C:/Users/pbeli/Documents/GitHub/OMM\\omm.log', 'omm_block_index': None, 'omm_job_count': None, 'omm_job_id': None, 'omm_job_index': None, 'omm_job_index_in_block': None, 'opensesame_codename': 'Lentiform Loewenfeld', 'opensesame_version': '3.3.9', 'response': 11, 'response_new_touch_response': 11, 'response_time': 1801, 'response_time_new_touch_response': 1801, 'round_decimals': 2, 'sound_buf_size': 1024, 'sound_channels': 2, 'sound_freq': 48000, 'sound_sample_size': -16, 'start': 'experiment', 'subject_nr': 0, 'subject_parity': 'even', 'time_delay_1': 'NA', 'time_delay_1_1': 8197, 'time_empty_sequence': 'NA', 'time_experiment': 5931, 'time_logger': 9697, 'time_make_task_infinite': 'NA', 'time_new_OMMConditioner': 7735, 'time_new_OMMConditioner_1': 8196, 'time_new_loop': 'NA', 'time_new_repeat_cycle': 'NA', 'time_new_touch_response': 5933, 'time_request_job': 5932, 'time_sound': 7735, 'time_start_button': 5933, 'time_test_loop': 'NA', 'time_trial_sequence': 5932, 'title': 'OMM Background Task', 'total_correct': 1, 'total_response_time': 1801, 'total_responses': 1, 'uniform_coordinates': 'yes', 'width': 1024}
{'Module': 'Module0', 'Participant': 'NA', 'acc': 100, 'accuracy': 100, 'correct_new_touch_response': 'NA', 'datetime': 'Thu Jan 20 16:08:12 2022', 'response': 10, 'response_time': 681, 'time_experiment': 252509, 'time_logger': 255310, 'time_new_touch_response': 'NA', 'time_rewarddetection': 'NA', 'time_rewardfortouch': 253310, 'time_start_button': 'NA', 'timestamp': '2022-01-20 17:09:39', 'title': 'OMM BackgroundTask'}
{'Module': 'Module0', 'Participant': 'NA', 'acc': 100, 'accuracy': 100, 'correct_new_touch_response': 'NA', 'datetime': 'Thu Jan 20 16:10:58 2022', 'response': 10, 'response_time': 406, 'time_experiment': 259645, 'time_logger': 262174, 'time_new_touch_response': 'NA', 'time_rewarddetection': 'NA', 'time_rewardfortouch': 260173, 'time_start_button': 'NA', 'timestamp': '2022-01-20 17:07:28', 'title': 'OMM BackgroundTask'}
{'Module': 'Module0', 'Participant': 'NA', 'acc': 100, 'accuracy': 100, 'correct_new_touch_response': 'NA', 'datetime': 'Sat Jan 22 22:44:11 2022', 'response': 1, 'response_time': 940, 'time_experiment': 269918, 'time_logger': 273141, 'time_new_touch_response': 'NA', 'time_rewarddetection': 'NA', 'time_rewardfortouch': 270924, 'time_start_button': 'NA', 'timestamp': 'NA', 'title': 'OMM BackgroundTask'}
